sub,cor,conf,ERNfcz,ERNpz,PEpz,trial,rt,resp,ACC,cj,stimulus,prevcor,postcor,prevcj,postcj,postsub,Pe_bin,ERNfcz_bin,ERNpz_bin,prevconf,prevpe,postpe,prevernfcz,posternfcz,prevernpz,posternpz,prevpe_bin,postpe_bin,prevernfcz_bin,posternfcz_bin,prevernpz_bin,posternpz_bin,outlier,subj_idx,response
1,0,5,-5.9881,-4.8875,-2.4777,2,0.544,0,1,5,-1,1,1,4,4,1,2,1,1,4,-0.54132,26.983,-10.008,1.3812,-3.9699,0.10245,3,2,1,2,1,2,0,1,0
1,0,4,1.3812,0.10245,26.983,3,0.56,0,1,4,-1,1,1,5,5,1,5,2,2,5,-2.4777,6.3864,-5.9881,4.7485,-4.8875,11.341,2,5,1,5,1,3,0,1,0
1,0,5,4.7485,11.341,6.3864,4,0.454,1,1,5,1,1,1,4,5,1,4,5,3,4,26.983,1.6294,1.3812,-7.6604,0.10245,0.70616,5,4,2,2,2,1,0,1,1
1,0,5,-7.6604,0.70616,1.6294,5,0.39,0,1,5,-1,1,1,5,5,1,3,2,1,5,6.3864,8.4969,4.7485,-5.3329,11.341,-0.65537,4,3,5,2,3,1,0,1,0
1,0,5,-5.3329,-0.65537,8.4969,6,0.466,1,1,5,1,1,1,5,4,1,4,2,1,5,1.6294,-6.1292,-7.6604,0.53894,0.70616,3.0033,3,4,2,3,1,2,0,1,1
1,0,4,0.53894,3.0033,-6.1292,7,0.556,1,1,4,1,1,1,5,4,1,2,3,2,5,8.4969,8.0508,-5.3329,2.0475,-0.65537,7.1183,4,2,2,4,1,3,0,1,1
1,0,4,2.0475,7.1183,8.0508,8,0.381,0,1,4,-1,1,1,4,4,1,4,4,3,4,-6.1292,-6.1734,0.53894,-0.59598,3.0033,-3.1911,2,4,3,1,2,2,0,1,0
1,0,4,-0.59598,-3.1911,-6.1734,9,0.507,0,1,4,-1,1,1,4,5,1,2,1,2,4,8.0508,1.5457,2.0475,8.0949,7.1183,5.5279,4,2,4,4,3,4,0,1,0
1,0,5,8.0949,5.5279,1.5457,10,0.572,0,1,5,-1,1,1,4,6,1,3,4,4,4,-6.1734,5.3068,-0.59598,-7.4119,-3.1911,1.6893,2,3,1,2,2,1,0,1,0
1,0,6,-7.4119,1.6893,5.3068,11,0.45,0,1,6,-1,1,1,5,4,1,4,2,1,5,1.5457,-53.14,8.0949,-1.3439,5.5279,-16.642,3,4,4,1,4,2,0,1,0
1,0,4,-1.3439,-16.642,-53.14,12,0.474,1,1,4,1,1,1,6,4,1,1,1,2,6,5.3068,7.8635,-7.4119,-3.9339,1.6893,4.8701,4,1,2,4,1,1,0,1,1
1,0,4,-3.9339,4.8701,7.8635,13,0.56,1,1,4,1,1,1,4,5,1,4,4,1,4,-53.14,15.735,-1.3439,-1.0111,-16.642,2.3245,1,4,1,3,2,2,0,1,1
1,0,5,-1.0111,2.3245,15.735,14,0.519,1,1,5,1,1,1,4,4,1,5,3,2,4,7.8635,1.0136,-3.9339,-3.3829,4.8701,3.5131,4,5,4,3,1,1,0,1,1
1,0,4,-3.3829,3.5131,1.0136,15,0.397,1,1,4,1,1,1,5,4,1,3,3,1,5,15.735,7.6755,-1.0111,5.3146,2.3245,5.6898,5,3,3,4,2,4,0,1,1
1,0,4,5.3146,5.6898,7.6755,16,0.45,1,1,4,1,1,0,4,3,1,4,4,4,4,1.0136,6.6479,-3.3829,-6.3404,3.5131,-1.771,3,4,3,1,1,1,0,1,1
1,1,3,-6.3404,-1.771,6.6479,17,0.751,0,0,3,1,1,0,4,4,1,4,1,1,4,7.6755,3.9786,5.3146,2.6494,5.6898,0.59958,4,4,4,2,4,3,0,1,0
1,1,4,2.6494,0.59958,3.9786,18,0.674,1,0,4,-1,0,1,3,5,1,3,2,3,3,6.6479,3.6916,-6.3404,8.3729,-1.771,14.568,4,3,1,5,1,4,0,1,1
1,0,5,8.3729,14.568,3.6916,19,0.564,0,1,5,-1,0,1,4,6,1,3,5,4,4,3.9786,9.7972,2.6494,-7.2443,0.59958,-3.7257,3,3,2,1,3,1,0,1,0
1,0,6,-7.2443,-3.7257,9.7972,20,0.434,1,1,6,1,1,1,5,6,1,4,1,1,5,3.6916,5.4997,8.3729,8.7182,14.568,5.8456,3,4,5,4,4,4,0,1,1
1,0,6,8.7182,5.8456,5.4997,21,0.462,1,1,6,1,1,1,6,6,1,4,4,4,6,9.7972,1.3016,-7.2443,6.0231,-3.7257,5.365,4,4,1,4,1,4,0,1,1
1,0,6,6.0231,5.365,1.3016,22,0.503,0,1,6,-1,1,1,6,4,1,3,4,4,6,5.4997,-4.0903,8.7182,-3.5628,5.8456,-2.8856,4,3,4,1,4,1,0,1,0
1,0,4,-3.5628,-2.8856,-4.0903,23,0.507,0,1,4,-1,1,1,6,3,1,2,1,1,6,1.3016,0.82348,6.0231,1.5303,5.365,6.0531,3,2,4,4,4,2,0,1,0
1,0,3,1.5303,6.0531,0.82348,24,0.792,0,1,3,-1,1,1,4,4,1,3,4,2,4,-4.0903,-3.6787,-3.5628,6.7154,-2.8856,-3.1647,2,3,1,1,1,4,0,1,0
1,0,4,6.7154,-3.1647,-3.6787,25,0.576,0,1,4,-1,1,1,3,4,1,2,1,4,3,0.82348,-11.277,1.5303,-0.49663,6.0531,-3.9708,3,2,4,1,2,2,0,1,0
1,0,4,-0.49663,-3.9708,-11.277,26,0.397,0,1,4,-1,1,1,4,6,1,1,1,2,4,-3.6787,18.191,6.7154,4.5146,-3.1647,7.0619,2,1,1,4,4,3,0,1,0
1,0,6,4.5146,7.0619,18.191,27,0.503,1,1,6,1,1,0,4,2,1,5,4,3,4,-11.277,2.8497,-0.49663,-3.665,-3.9708,-2.3325,1,5,1,1,2,1,0,1,1
1,1,2,-3.665,-2.3325,2.8497,28,0.544,0,0,2,1,1,1,6,5,1,3,1,1,6,18.191,-2.9652,4.5146,-1.0112,7.0619,-1.5593,5,3,4,1,3,2,0,1,0
1,0,5,-1.0112,-1.5593,-2.9652,29,0.434,1,1,5,1,0,1,2,4,1,2,1,2,2,2.8497,5.3859,-3.665,5.7308,-2.3325,8.5337,3,2,1,5,1,4,0,1,1
1,0,4,5.7308,8.5337,5.3859,30,0.393,1,1,4,1,1,1,5,5,1,4,5,4,5,-2.9652,20.983,-1.0112,4.6117,-1.5593,7.8324,2,4,1,4,2,3,0,1,1
1,0,5,4.6117,7.8324,20.983,31,0.462,0,1,5,-1,1,1,4,5,1,5,4,3,4,5.3859,-17.955,5.7308,9.8544,8.5337,8.4494,4,5,5,5,4,5,0,1,0
1,0,5,9.8544,8.4494,-17.955,32,0.499,0,1,5,-1,1,1,5,6,1,1,5,5,5,20.983,1.9087,4.6117,4.5855,7.8324,-0.0059478,5,1,4,2,3,3,0,1,0
1,0,6,4.5855,-0.0059478,1.9087,33,0.446,1,1,6,1,1,1,5,6,1,3,2,3,5,-17.955,27.379,9.8544,0.42012,8.4494,7.3677,1,3,5,4,5,2,0,1,1
1,0,6,0.42012,7.3677,27.379,34,0.369,0,1,6,-1,1,1,6,4,1,5,4,2,6,1.9087,11.322,4.5855,5.9566,-0.0059478,3.3913,3,5,2,3,3,4,0,1,0
1,0,4,5.9566,3.3913,11.322,35,0.413,0,1,4,-1,1,1,6,5,1,5,3,4,6,27.379,-15.427,0.42012,-7.1318,7.3677,-5.5446,5,5,4,1,2,1,0,1,0
1,0,5,-7.1318,-5.5446,-15.427,36,0.417,0,1,5,-1,1,1,4,6,1,1,1,1,4,11.322,-14.874,5.9566,-5.4741,3.3913,-3.2327,5,1,3,1,4,1,0,1,0
1,0,6,-5.4741,-3.2327,-14.874,37,0.486,1,1,6,1,1,1,5,5,1,1,1,1,5,-15.427,9.0405,-7.1318,-1.4279,-5.5446,-1.7165,1,1,1,1,1,2,0,1,1
1,0,5,-1.4279,-1.7165,9.0405,38,0.47,0,1,5,-1,1,1,6,2,1,4,1,2,6,-14.874,2.6799,-5.4741,1.3025,-3.2327,-2.4717,1,4,1,1,1,2,0,1,0
1,0,2,1.3025,-2.4717,2.6799,39,0.47,1,1,2,1,1,1,5,5,1,3,1,2,5,9.0405,11.803,-1.4279,2.4415,-1.7165,4.0882,4,3,1,3,2,3,0,1,1
1,0,5,2.4415,4.0882,11.803,40,0.431,0,1,5,-1,1,0,2,4,1,5,3,3,2,2.6799,0.79997,1.3025,2.9345,-2.4717,11.622,3,5,1,5,2,3,0,1,0
1,1,4,2.9345,11.622,0.79997,41,0.511,0,0,4,1,1,0,5,4,1,3,5,3,5,11.803,-7.1689,2.4415,10.256,4.0882,7.8654,5,3,3,4,3,5,0,1,0
1,1,4,10.256,7.8654,-7.1689,42,0.557,0,0,4,1,0,1,4,4,1,2,4,5,4,0.79997,-8.2699,2.9345,-2.3833,11.622,5.8949,3,2,5,4,3,1,0,1,0
1,0,4,-2.3833,5.8949,-8.2699,43,0.403,0,1,4,-1,0,0,4,3,1,1,4,1,4,-7.1689,15.365,10.256,16.856,7.8654,14.739,2,1,4,5,5,5,0,1,0
1,1,3,16.856,14.739,15.365,44,0.596,0,0,3,1,1,1,4,5,1,5,5,5,4,-8.2699,-8.904,-2.3833,3.0156,5.8949,0.38991,1,5,4,2,1,3,0,1,0
1,0,5,3.0156,0.38991,-8.904,45,0.45,1,1,5,1,0,1,3,5,1,1,2,3,3,15.365,-18.916,16.856,8.0023,14.739,1.2137,5,1,5,2,5,4,0,1,1
1,0,5,8.0023,1.2137,-18.916,46,0.45,0,1,5,-1,1,1,5,5,1,1,2,4,5,-8.904,2.2249,3.0156,-5.4279,0.38991,0.99792,1,1,2,2,3,1,0,1,0
1,0,5,-5.4279,0.99792,2.2249,47,0.425,0,1,5,-1,1,1,5,5,1,3,2,1,5,-18.916,-2.0472,8.0023,5.9512,1.2137,-0.49306,1,3,2,2,4,4,0,1,0
1,0,5,5.9512,-0.49306,-2.0472,48,0.614,1,1,5,1,1,1,5,4,1,2,2,4,5,2.2249,34.044,-5.4279,-4.4052,0.99792,3.0563,3,2,2,3,1,1,0,1,1
1,0,4,-4.4052,3.0563,34.044,49,0.421,1,1,4,1,1,0,5,3,1,5,3,1,5,-2.0472,-23.992,5.9512,6.4598,-0.49306,-1.0994,2,5,2,2,4,4,0,1,1
1,1,3,6.4598,-1.0994,-23.992,50,0.776,0,0,3,1,1,1,4,5,1,1,2,4,4,34.044,-0.66742,-4.4052,-0.55346,3.0563,1.7852,5,1,3,2,1,2,0,1,0
1,0,5,-0.55346,1.7852,-0.66742,51,0.409,1,1,5,1,0,1,3,5,1,3,2,2,3,-23.992,1.411,6.4598,-0.088859,-1.0994,7.3107,1,3,2,4,4,2,0,1,1
1,0,5,-0.088859,7.3107,1.411,52,0.397,0,1,5,-1,1,1,5,6,1,3,4,2,5,-0.66742,-0.51803,-0.55346,-5.1818,1.7852,7.0903,3,3,2,4,2,1,0,1,0
1,0,6,-5.1818,7.0903,-0.51803,53,0.487,1,1,6,1,1,0,5,3,1,3,4,1,5,1.411,12.644,-0.088859,-0.089938,7.3107,-1.1357,3,3,4,2,2,2,0,1,1
1,1,3,-0.089938,-1.1357,12.644,54,0.618,0,0,3,1,1,1,6,4,1,5,2,2,6,-0.51803,-9.447,-5.1818,-2.4822,7.0903,-4.7897,3,5,4,1,1,1,0,1,0
1,0,4,-2.4822,-4.7897,-9.447,55,0.495,0,1,4,-1,0,1,3,5,1,1,1,1,3,12.644,11.909,-0.089938,-6.0369,-1.1357,2.5636,5,1,2,3,2,1,0,1,0
1,0,5,-6.0369,2.5636,11.909,56,0.451,0,1,5,-1,1,1,4,3,1,5,3,1,4,-9.447,5.9533,-2.4822,7.7831,-4.7897,2.1692,1,5,1,3,1,4,0,1,0
1,0,3,7.7831,2.1692,5.9533,57,0.678,1,1,3,1,1,1,5,5,1,4,3,4,5,11.909,-10.44,-6.0369,-6.0166,2.5636,-0.45095,5,4,3,2,1,1,0,1,1
1,0,5,-6.0166,-0.45095,-10.44,58,0.523,0,1,5,-1,1,1,3,4,1,1,2,1,3,5.9533,7.9583,7.7831,-5.4732,2.1692,0.2911,4,1,3,2,4,1,0,1,0
1,0,4,-5.4732,0.2911,7.9583,59,0.499,0,1,4,-1,1,0,5,5,1,4,2,1,5,-10.44,-0.88708,-6.0166,3.7143,-0.45095,1.7349,1,4,2,2,1,3,0,1,0
1,1,5,3.7143,1.7349,-0.88708,60,0.458,0,0,5,1,1,1,4,3,1,3,2,3,4,7.9583,-7.242,-5.4732,-5.0762,0.2911,-7.9903,4,3,2,1,1,1,0,1,0
1,0,3,-5.0762,-7.9903,-7.242,61,0.641,1,1,3,1,0,1,5,4,1,2,1,1,5,-0.88708,-6.2289,3.7143,2.2114,1.7349,-2.4735,3,2,2,1,3,3,0,1,1
1,0,4,2.2114,-2.4735,-6.2289,62,0.454,1,1,4,1,1,1,3,3,1,2,1,3,3,-7.242,-2.4481,-5.0762,-5.0088,-7.9903,-1.8549,2,2,1,1,1,1,0,1,1
1,0,3,-5.0088,-1.8549,-2.4481,63,0.446,1,1,3,1,1,1,4,4,1,2,1,1,4,-6.2289,12.562,2.2114,4.0471,-2.4735,-0.14238,2,2,1,2,3,3,0,1,1
1,0,4,4.0471,-0.14238,12.562,64,0.499,0,1,4,-1,1,1,3,4,1,5,2,3,3,-2.4481,12.276,-5.0088,-1.909,-1.8549,0.063195,2,5,1,2,1,2,0,1,0
1,0,4,-1.909,0.063195,12.276,65,0.515,0,1,4,-1,1,1,4,4,1,5,2,2,4,12.562,-11.341,4.0471,-1.1311,-0.14238,1.3897,5,5,2,2,3,2,0,1,0
1,0,4,-1.1311,1.3897,-11.341,66,0.376,1,1,4,1,1,1,4,4,1,1,2,2,4,12.276,-4.514,-1.909,-0.21501,0.063195,1.1414,5,1,2,2,2,2,0,1,1
1,0,4,-0.21501,1.1414,-4.514,67,0.437,1,1,4,1,1,1,4,5,1,2,2,2,4,-11.341,2.4984,-1.1311,-4.2414,1.3897,-0.78039,1,2,2,2,2,1,0,1,1
1,0,5,-4.2414,-0.78039,2.4984,68,0.457,1,1,5,1,1,1,4,6,1,3,2,1,4,-4.514,6.0389,-0.21501,-3.1969,1.1414,4.1693,2,3,2,3,2,1,0,1,1
1,0,6,-3.1969,4.1693,6.0389,69,0.417,0,1,6,-1,1,0,5,4,1,4,3,1,5,2.4984,-7.3496,-4.2414,6.2324,-0.78039,4.3796,3,4,2,3,1,4,0,1,0
1,1,4,6.2324,4.3796,-7.3496,70,0.584,0,0,4,1,1,1,6,3,1,1,3,4,6,6.0389,-16.385,-3.1969,-15.968,4.1693,-5.8149,4,1,3,1,1,1,0,1,0
1,0,3,-15.968,-5.8149,-16.385,71,0.434,0,1,3,-1,0,1,4,6,1,1,1,1,4,-7.3496,-5.3558,6.2324,3.6705,4.3796,2.9931,1,1,3,3,4,3,0,1,0
1,0,6,3.6705,2.9931,-5.3558,72,0.433,0,1,6,-1,1,1,3,6,1,2,3,3,3,-16.385,-5.5119,-15.968,6.3786,-5.8149,4.6966,1,2,1,4,1,4,0,1,0
1,0,6,6.3786,4.6966,-5.5119,73,0.376,0,1,6,-1,1,1,6,5,1,2,4,4,6,-5.3558,-3.4841,3.6705,4.9068,2.9931,6.1562,2,2,3,4,3,3,0,1,0
1,0,5,4.9068,6.1562,-3.4841,74,0.503,1,1,5,1,1,1,6,4,1,2,4,3,6,-5.5119,8.6917,6.3786,-5.1822,4.6966,-5.8499,2,2,4,1,4,1,0,1,1
1,0,4,-5.1822,-5.8499,8.6917,75,0.454,0,1,4,-1,1,0,5,3,1,4,1,1,5,-3.4841,11.192,4.9068,4.2371,6.1562,5.0278,2,4,4,4,3,3,0,1,0
1,1,3,4.2371,5.0278,11.192,76,0.629,0,0,3,1,1,0,4,1,1,5,4,3,4,8.6917,9.4551,-5.1822,9.4452,-5.8499,1.9513,4,5,1,3,1,5,0,1,0
1,1,1,9.4452,1.9513,9.4551,77,0.421,1,0,1,-1,0,1,3,5,1,4,3,5,3,11.192,22.137,4.2371,-5.9761,5.0278,-1.256,5,4,4,1,3,1,0,1,1
1,0,5,-5.9761,-1.256,22.137,78,0.495,0,1,5,-1,0,1,1,6,1,5,1,1,1,9.4551,-7.1825,9.4452,1.033,1.9513,4.4082,4,5,3,3,5,2,0,1,0
1,0,6,1.033,4.4082,-7.1825,79,0.36,0,1,6,-1,1,1,5,5,1,2,3,2,5,22.137,-27.915,-5.9761,-13.187,-1.256,-2.9206,5,2,1,1,1,1,0,1,0
1,0,5,-13.187,-2.9206,-27.915,80,0.378,0,1,5,-1,1,1,6,5,1,1,1,1,6,-7.1825,8.1646,1.033,6.3274,4.4082,7.0714,2,1,3,4,2,4,0,1,0
1,0,5,6.3274,7.0714,8.1646,81,0.311,0,1,5,-1,1,1,5,5,1,4,4,4,5,-27.915,-1.7559,-13.187,-1.8107,-2.9206,1.7473,1,4,1,2,1,2,0,1,0
1,0,5,-1.8107,1.7473,-1.7559,82,0.385,0,1,5,-1,1,1,5,5,1,2,2,2,5,8.1646,-12.528,6.3274,-0.63343,7.0714,-5.0845,4,2,4,1,4,2,0,1,0
1,0,5,-0.63343,-5.0845,-12.528,83,0.328,0,1,5,-1,1,1,5,6,1,1,1,2,5,-1.7559,0.19866,-1.8107,1.1651,1.7473,2.4076,2,1,2,3,2,2,0,1,0
1,0,6,1.1651,2.4076,0.19866,84,0.617,1,1,6,1,1,1,5,5,1,3,3,2,5,-12.528,-5.8879,-0.63343,2.4795,-5.0845,-2.1561,1,3,1,1,2,3,0,1,1
1,0,5,2.4795,-2.1561,-5.8879,85,0.535,0,1,5,-1,1,1,6,6,1,2,1,3,6,0.19866,9.176,1.1651,-2.8362,2.4076,2.9861,3,2,3,3,2,1,0,1,0
1,0,6,-2.8362,2.9861,9.176,86,0.381,0,1,6,-1,1,1,5,3,1,4,3,1,5,-5.8879,-7.5048,2.4795,-3.1885,-2.1561,-4.8088,2,4,1,1,3,1,0,1,0
1,0,3,-3.1885,-4.8088,-7.5048,87,0.474,1,1,3,1,1,1,6,6,1,1,1,1,6,9.176,3.5679,-2.8362,-3.2968,2.9861,-0.32504,4,1,3,2,1,1,0,1,1
1,0,6,-3.2968,-0.32504,3.5679,88,0.45,1,1,6,1,1,1,3,6,1,3,2,1,3,-7.5048,5.5934,-3.1885,9.6715,-4.8088,10.632,1,3,1,5,1,5,0,1,1
1,0,6,9.6715,10.632,5.5934,89,0.32,1,1,6,1,1,1,6,6,1,4,5,5,6,3.5679,1.4119,-3.2968,8.4604,-0.32504,9.3076,3,4,2,5,1,4,0,1,1
1,0,6,8.4604,9.3076,1.4119,90,0.356,1,1,6,1,1,1,6,6,1,3,5,4,6,5.5934,-13.712,9.6715,10.257,10.632,7.6398,4,3,5,4,5,5,0,1,1
1,0,6,10.257,7.6398,-13.712,91,0.43,1,1,6,1,1,1,6,6,1,1,4,5,6,1.4119,-5.2586,8.4604,-3.6873,9.3076,1.4975,3,1,5,2,4,1,0,1,1
1,0,6,-3.6873,1.4975,-5.2586,92,0.356,0,1,6,-1,1,1,6,5,1,2,2,1,6,-13.712,30.525,10.257,4.386,7.6398,2.1622,1,2,4,3,5,3,0,1,0
1,0,5,4.386,2.1622,30.525,93,0.515,0,1,5,-1,1,1,6,6,1,5,3,3,6,-5.2586,-29.111,-3.6873,-3.9207,1.4975,-4.9796,2,5,2,1,1,1,0,1,0
1,0,6,-3.9207,-4.9796,-29.111,94,0.401,1,1,6,1,1,1,5,4,1,1,1,1,5,30.525,-17.553,4.386,-13.831,2.1622,-1.6403,5,1,3,1,3,1,0,1,1
1,0,4,-13.831,-1.6403,-17.553,95,0.6,0,1,4,-1,1,1,6,5,1,1,1,1,6,-29.111,-2.1153,-3.9207,1.2244,-4.9796,6.0635,1,1,1,4,1,2,0,1,0
1,0,5,1.2244,6.0635,-2.1153,96,0.397,1,1,5,1,1,1,4,3,1,2,4,2,4,-17.553,14.142,-13.831,8.1589,-1.6403,4.089,1,2,1,3,1,4,0,1,1
1,0,3,8.1589,4.089,14.142,97,0.56,0,1,3,-1,1,1,5,6,1,5,3,4,5,-2.1153,-4.9996,1.2244,2.3924,6.0635,4.0471,2,5,4,3,2,3,0,1,0
1,0,6,2.3924,4.0471,-4.9996,98,0.455,0,1,6,-1,1,1,3,6,1,2,3,3,3,14.142,-5.7157,8.1589,-2.9982,4.089,-2.1953,5,2,3,1,4,1,0,1,0
1,0,6,-2.9982,-2.1953,-5.7157,99,0.324,1,1,6,1,1,1,6,6,1,2,1,1,6,-4.9996,-12.365,2.3924,-0.62668,4.0471,-0.82845,2,2,3,2,3,2,0,1,1
1,0,6,-0.62668,-0.82845,-12.365,100,0.454,1,1,6,1,1,1,6,6,1,1,2,2,6,-5.7157,5.8062,-2.9982,2.6914,-2.1953,2.4028,2,1,1,3,1,3,0,1,1
1,0,6,2.6914,2.4028,5.8062,101,0.43,0,1,6,-1,1,1,6,6,1,4,3,3,6,-12.365,11.439,-0.62668,7.8255,-0.82845,9.5396,1,4,2,5,2,4,0,1,0
1,0,6,7.8255,9.5396,11.439,102,0.377,0,1,6,-1,1,1,6,4,1,5,5,4,6,5.8062,-7.0455,2.6914,0.38728,2.4028,0.83404,4,5,3,2,3,2,0,1,0
1,0,4,0.38728,0.83404,-7.0455,103,0.434,0,1,4,-1,1,1,6,5,1,2,2,2,6,11.439,-23.829,7.8255,-11.432,9.5396,-7.601,5,2,5,1,4,1,0,1,0
1,0,5,-11.432,-7.601,-23.829,104,0.393,0,1,5,-1,1,1,4,6,1,1,1,1,4,-7.0455,-0.084147,0.38728,3.095,0.83404,4.0458,2,1,2,3,2,3,0,1,0
1,0,6,3.095,4.0458,-0.084147,105,0.32,0,1,6,-1,1,1,5,6,1,3,3,3,5,-23.829,25.9,-11.432,-4.5534,-7.601,1.1398,1,3,1,2,1,1,0,1,0
1,0,6,-4.5534,1.1398,25.9,106,0.344,0,1,6,-1,1,1,6,4,1,5,2,1,6,-0.084147,6.8251,3.095,1.0904,4.0458,8.9534,3,5,3,5,3,2,0,1,0
1,0,4,1.0904,8.9534,6.8251,107,0.511,1,1,4,1,1,1,6,6,1,4,5,2,6,25.9,2.7468,-4.5534,-1.8018,1.1398,2.687,5,4,2,3,1,2,0,1,1
1,0,6,-1.8018,2.687,2.7468,108,0.401,0,1,6,-1,1,1,4,4,1,3,3,2,4,6.8251,-7.9632,1.0904,-1.9612,8.9534,-1.932,4,3,5,1,2,2,0,1,0
1,0,4,-1.9612,-1.932,-7.9632,109,0.515,1,1,4,1,1,0,6,3,1,1,1,2,6,2.7468,-3.5685,-1.8018,1.6014,2.687,-2.0222,3,1,3,1,2,2,0,1,1
1,1,3,1.6014,-2.0222,-3.5685,110,0.56,0,0,3,1,1,1,4,3,1,2,1,2,4,-7.9632,3.9424,-1.9612,2.028,-1.932,4.4044,1,2,1,3,2,3,0,1,0
1,0,3,2.028,4.4044,3.9424,111,0.576,1,1,3,1,0,0,3,1,1,3,3,3,3,-3.5685,16.49,1.6014,1.9213,-2.0222,-0.38156,2,3,1,2,2,3,0,1,1
1,1,1,1.9213,-0.38156,16.49,112,0.723,0,0,1,1,1,1,3,5,1,5,2,3,3,3.9424,5.8998,2.028,8.6154,4.4044,10.634,3,5,3,5,3,4,0,1,0
1,0,5,8.6154,10.634,5.8998,113,0.34,1,1,5,1,0,1,1,6,1,4,5,4,1,16.49,-15.302,1.9213,3.2258,-0.38156,-2.2414,5,4,2,1,3,3,0,1,1
1,0,6,3.2258,-2.2414,-15.302,114,0.544,1,1,6,1,1,1,5,6,1,1,1,3,5,5.8998,-0.64401,8.6154,-4.4369,10.634,-0.77352,4,1,5,2,4,1,0,1,1
1,0,6,-4.4369,-0.77352,-0.64401,115,0.421,0,1,6,-1,1,1,6,5,1,3,2,1,6,-15.302,20.708,3.2258,2.3375,-2.2414,3.923,1,3,1,3,3,3,0,1,0
1,0,5,2.3375,3.923,20.708,116,0.45,0,1,5,-1,1,1,6,3,1,5,3,3,6,-0.64401,6.5486,-4.4369,-1.6579,-0.77352,0.019779,3,5,2,2,1,2,0,1,0
1,0,3,-1.6579,0.019779,6.5486,117,0.609,1,1,3,1,1,1,5,5,1,4,2,2,5,20.708,-1.9846,2.3375,-13.13,3.923,-2.0027,5,4,3,1,3,1,0,1,1
1,0,5,-13.13,-2.0027,-1.9846,118,0.442,1,1,5,1,1,1,3,6,1,2,1,1,3,6.5486,-8.7963,-1.6579,-11.247,0.019779,-3.8477,4,2,2,1,2,1,0,1,1
1,0,6,-11.247,-3.8477,-8.7963,119,0.364,0,1,6,-1,1,1,5,6,1,1,1,1,5,-1.9846,-3.7193,-13.13,-5.1855,-2.0027,-3.1304,2,1,1,1,1,1,0,1,0
1,0,6,-5.1855,-3.1304,-3.7193,120,0.458,0,1,6,-1,1,1,6,6,1,2,1,1,6,-8.7963,0.72609,-11.247,2.2035,-3.8477,4.7141,1,2,1,4,1,3,0,1,0
1,0,6,2.2035,4.7141,0.72609,121,0.368,0,1,6,-1,1,0,6,1,1,3,4,3,6,-3.7193,4.3059,-5.1855,1.8292,-3.1304,10.27,2,3,1,5,1,3,0,1,0
1,1,1,1.8292,10.27,4.3059,122,0.274,0,0,1,1,1,1,6,6,1,4,5,3,6,0.72609,-3.8722,2.2035,4.873,4.7141,-0.78445,3,4,4,2,3,3,0,1,0
1,0,6,4.873,-0.78445,-3.8722,123,0.369,0,1,6,-1,0,1,1,4,1,2,2,3,1,4.3059,15.372,1.8292,7.6073,10.27,5.207,4,2,5,4,3,4,0,1,0
1,0,4,7.6073,5.207,15.372,124,0.336,0,1,4,-1,1,1,6,5,1,5,4,4,6,-3.8722,9.9015,4.873,-6.3399,-0.78445,-2.2214,2,5,2,1,3,1,0,1,0
1,0,5,-6.3399,-2.2214,9.9015,125,0.438,1,1,5,1,1,0,4,5,1,4,1,1,4,15.372,3.2979,7.6073,4.8043,5.207,2.3309,5,4,4,3,4,3,0,1,1
1,1,5,4.8043,2.3309,3.2979,126,0.413,0,0,5,1,1,1,5,6,1,3,3,3,5,9.9015,9.0986,-6.3399,2.5116,-2.2214,7.15,4,3,1,4,1,3,0,1,0
1,0,6,2.5116,7.15,9.0986,127,0.417,1,1,6,1,0,1,5,6,1,4,4,3,5,3.2979,-12.249,4.8043,2.901,2.3309,3.1546,3,4,3,3,3,3,0,1,1
1,0,6,2.901,3.1546,-12.249,128,0.356,1,1,6,1,1,1,6,6,1,1,3,3,6,9.0986,-12.588,2.5116,-3.0711,7.15,1.4862,4,1,4,2,3,1,0,1,1
1,0,6,-3.0711,1.4862,-12.588,129,0.328,1,1,6,1,1,1,6,6,1,1,2,1,6,-12.249,-6.4251,2.901,2.4642,3.1546,2.8581,1,1,3,3,3,3,0,1,1
1,0,6,2.4642,2.8581,-6.4251,130,0.401,1,1,6,1,1,0,6,1,1,2,3,3,6,-12.588,6.7556,-3.0711,-0.39673,1.4862,0.77005,1,2,2,2,1,2,0,1,1
1,1,1,-0.39673,0.77005,6.7556,131,0.352,1,0,1,-1,1,1,6,6,1,4,2,2,6,-6.4251,-2.0227,2.4642,4.3985,2.8581,0.41575,2,4,3,2,3,3,0,1,1
1,0,6,4.3985,0.41575,-2.0227,132,0.36,0,1,6,-1,0,1,1,3,1,2,2,3,1,6.7556,-2.4042,-0.39673,-6.3906,0.77005,-3.5031,4,2,2,1,2,1,0,1,0
1,0,3,-6.3906,-3.5031,-2.4042,133,0.421,1,1,3,1,1,1,6,6,1,2,1,1,6,-2.0227,3.086,4.3985,5.326,0.41575,7.0173,2,2,2,4,3,4,0,1,1
1,0,6,5.326,7.0173,3.086,134,0.372,0,1,6,-1,1,1,3,6,1,3,4,4,3,-2.4042,-6.3244,-6.3906,-1.5375,-3.5031,0.63517,2,3,1,2,1,2,0,1,0
1,0,6,-1.5375,0.63517,-6.3244,135,0.36,0,1,6,-1,1,1,6,6,1,2,2,2,6,3.086,5.7764,5.326,-1.7793,7.0173,0.92786,3,2,4,2,4,2,0,1,0
1,0,6,-1.7793,0.92786,5.7764,136,0.495,1,1,6,1,1,1,6,6,1,4,2,2,6,-6.3244,-13.48,-1.5375,0.6629,0.63517,-2.0389,2,4,2,1,2,2,0,1,1
1,0,6,0.6629,-2.0389,-13.48,137,0.323,1,1,6,1,1,1,6,6,1,1,1,2,6,5.7764,3.7519,-1.7793,1.9582,0.92786,4.5648,4,1,2,3,2,3,0,1,1
1,0,6,1.9582,4.5648,3.7519,138,0.311,1,1,6,1,1,1,6,6,1,3,3,3,6,-13.48,24.461,0.6629,9.221,-2.0389,5.0641,1,3,1,4,2,5,0,1,1
1,0,6,9.221,5.0641,24.461,139,0.45,0,1,6,-1,1,1,6,6,1,5,4,5,6,3.7519,7.1583,1.9582,-7.1449,4.5648,0.30581,3,5,3,2,3,1,0,1,0
1,0,6,-7.1449,0.30581,7.1583,140,0.503,0,1,6,-1,1,1,6,6,1,4,2,1,6,24.461,31.222,9.221,1.8262,5.0641,3.301,5,4,4,3,5,3,0,1,0
1,0,6,1.8262,3.301,31.222,141,0.454,0,1,6,-1,1,1,6,6,1,5,3,3,6,7.1583,3.3741,-7.1449,7.0451,0.30581,14.052,4,5,2,5,1,4,0,1,0
1,0,6,7.0451,14.052,3.3741,142,0.443,1,1,6,1,1,1,6,6,1,3,5,4,6,31.222,-8.82,1.8262,-14.349,3.301,-2.1666,5,3,3,1,3,1,0,1,1
1,0,6,-14.349,-2.1666,-8.82,143,0.421,1,1,6,1,1,1,6,6,1,1,1,1,6,3.3741,6.1305,7.0451,-1.7225,14.052,-0.13502,3,1,5,2,4,2,0,1,1
1,0,6,-1.7225,-0.13502,6.1305,144,0.43,0,1,6,-1,1,1,6,5,1,4,2,2,6,-8.82,-15.648,-14.349,-6.4018,-2.1666,-4.4078,1,4,1,1,1,1,0,1,0
1,0,5,-6.4018,-4.4078,-15.648,145,0.536,1,1,5,1,1,1,6,6,1,1,1,1,6,6.1305,2.4561,-1.7225,6.7754,-0.13502,10.966,4,1,2,5,2,4,0,1,1
1,0,6,6.7754,10.966,2.4561,146,0.321,0,1,6,-1,1,0,5,2,1,3,5,4,5,-15.648,19.425,-6.4018,-4.0181,-4.4078,-0.90051,1,3,1,2,1,1,0,1,0
1,1,2,-4.0181,-0.90051,19.425,147,0.58,1,0,2,-1,1,1,6,6,1,5,2,1,6,2.4561,-2.106,6.7754,15.701,10.966,12.085,3,5,5,5,4,5,0,1,1
1,0,6,15.701,12.085,-2.106,148,0.352,1,1,6,1,0,1,2,6,1,2,5,5,2,19.425,5.2642,-4.0181,5.5,-0.90051,5.9017,5,2,2,4,1,4,0,1,1
1,0,6,5.5,5.9017,5.2642,149,0.466,0,1,6,-1,1,1,6,6,1,4,4,4,6,-2.106,-5.5426,15.701,-3.347,12.085,-2.7827,2,4,5,1,5,1,0,1,0
1,0,6,-3.347,-2.7827,-5.5426,150,0.405,1,1,6,1,1,1,6,6,1,2,1,1,6,5.2642,6.6131,5.5,9.0103,5.9017,6.0238,4,2,4,4,4,5,0,1,1
1,0,6,9.0103,6.0238,6.6131,151,0.307,0,1,6,-1,1,1,6,6,1,4,4,5,6,-5.5426,0.56736,-3.347,-1.1029,-2.7827,1.6084,2,4,1,2,1,2,0,1,0
1,0,6,-1.1029,1.6084,0.56736,152,0.348,1,1,6,1,1,1,6,4,1,3,2,2,6,6.6131,3.4541,9.0103,2.9529,6.0238,5.1418,4,3,4,4,5,3,0,1,1
1,0,4,2.9529,5.1418,3.4541,153,0.352,1,1,4,1,1,1,6,6,1,3,4,3,6,0.56736,3.8889,-1.1029,-2.6183,1.6084,0.90171,3,3,2,2,2,1,0,1,1
1,0,6,-2.6183,0.90171,3.8889,154,0.436,0,1,6,-1,1,1,4,6,1,3,2,1,4,3.4541,9.5095,2.9529,3.1208,5.1418,6.3909,3,3,4,4,3,3,0,1,0
1,0,6,3.1208,6.3909,9.5095,155,0.393,1,1,6,1,1,1,6,6,1,4,4,3,6,3.8889,-18.474,-2.6183,2.9478,0.90171,-1.2205,3,4,2,2,1,3,0,1,1
1,0,6,2.9478,-1.2205,-18.474,156,0.307,1,1,6,1,1,1,6,6,1,1,2,3,6,9.5095,-16.646,3.1208,-9.147,6.3909,-3.0428,4,1,4,1,3,1,0,1,1
1,0,6,-9.147,-3.0428,-16.646,157,0.378,0,1,6,-1,1,0,6,1,1,1,1,1,6,-18.474,-0.50064,2.9478,-0.16281,-1.2205,1.1357,1,1,2,2,3,2,0,1,0
1,1,1,-0.16281,1.1357,-0.50064,158,0.456,1,0,1,-1,1,1,6,6,1,3,2,2,6,-16.646,0.94317,-9.147,7.5528,-3.0428,4.2162,1,3,1,3,1,4,0,1,1
1,0,6,7.5528,4.2162,0.94317,159,0.442,0,1,6,-1,0,1,1,6,1,3,3,4,1,-0.50064,1.9928,-0.16281,-0.65433,1.1357,2.0809,3,3,2,3,2,2,0,1,0
1,0,6,-0.65433,2.0809,1.9928,160,0.393,1,1,6,1,1,1,6,6,1,3,3,2,6,0.94317,-3.8777,7.5528,1.9504,4.2162,1.4063,3,3,3,2,4,3,0,1,1
1,0,6,1.9504,1.4063,-3.8777,161,0.482,0,1,6,-1,1,1,6,6,1,2,2,3,6,1.9928,2.0838,-0.65433,-2.6014,2.0809,-3.3942,3,2,3,1,2,1,0,1,0
1,0,6,-2.6014,-3.3942,2.0838,162,0.595,0,1,6,-1,1,1,6,6,1,3,1,1,6,-3.8777,6.6957,1.9504,2.0659,1.4063,5.8133,2,3,2,4,3,3,0,1,0
1,0,6,2.0659,5.8133,6.6957,163,0.336,1,1,6,1,1,1,6,6,1,4,4,3,6,2.0838,-1.2193,-2.6014,7.8361,-3.3942,5.2619,3,4,1,4,1,4,0,1,1
1,0,6,7.8361,5.2619,-1.2193,164,0.364,0,1,6,-1,1,1,6,5,1,3,4,4,6,6.6957,-7.2983,2.0659,-11.885,5.8133,-0.45577,4,3,4,2,3,1,0,1,0
1,0,5,-11.885,-0.45577,-7.2983,165,0.328,1,1,5,1,1,1,6,4,1,2,2,1,6,-1.2193,2.9348,7.8361,-6.6778,5.2619,-4.8235,3,2,4,1,4,1,0,1,1
1,0,4,-6.6778,-4.8235,2.9348,166,0.617,1,1,4,1,1,1,5,5,1,3,1,1,5,-7.2983,5.4001,-11.885,1.188,-0.45577,-0.91857,2,3,2,2,1,2,0,1,1
1,0,5,1.188,-0.91857,5.4001,167,0.43,1,1,5,1,1,1,4,6,1,4,2,2,4,2.9348,-10.414,-6.6778,6.9673,-4.8235,5.8031,3,4,1,4,1,4,0,1,1
1,0,6,6.9673,5.8031,-10.414,168,0.377,1,1,6,1,1,1,5,5,1,1,4,4,5,5.4001,9.2259,1.188,0.22211,-0.91857,3.8531,4,1,2,3,2,2,0,1,1
1,0,5,0.22211,3.8531,9.2259,169,0.328,0,1,5,-1,1,1,6,4,1,4,3,2,6,-10.414,0.4467,6.9673,0.61092,5.8031,5.9983,1,4,4,4,4,2,0,1,0
1,0,4,0.61092,5.9983,0.4467,170,0.34,1,1,4,1,1,0,5,2,1,3,4,2,5,9.2259,-3.7243,0.22211,0.81306,3.8531,-7.8036,4,3,3,1,2,2,0,1,1
1,1,2,0.81306,-7.8036,-3.7243,171,0.45,1,0,2,-1,1,1,4,6,1,2,1,2,4,0.4467,-13.477,0.61092,-13.582,5.9983,0.57114,3,2,4,2,2,1,0,1,1
1,0,6,-13.582,0.57114,-13.477,172,0.311,1,1,6,1,0,1,2,6,1,1,2,1,2,-3.7243,-18.349,0.81306,-4.6278,-7.8036,-8.3664,2,1,1,1,2,1,0,1,1
1,0,6,-4.6278,-8.3664,-18.349,173,0.6,0,1,6,-1,1,1,6,6,1,1,1,1,6,-13.477,20.127,-13.582,4.2159,0.57114,6.9061,1,1,2,4,1,3,0,1,0
1,0,6,4.2159,6.9061,20.127,174,0.442,0,1,6,-1,1,1,6,6,1,5,4,3,6,-18.349,8.9326,-4.6278,38.696,-8.3664,23.762,1,5,1,5,1,5,0,1,0
1,0,6,38.696,23.762,8.9326,175,0.356,1,1,6,1,1,1,6,4,1,4,5,5,6,20.127,5.0095,4.2159,7.8813,6.9061,1.8834,5,4,4,3,3,4,0,1,1
1,0,4,7.8813,1.8834,5.0095,176,0.462,0,1,4,-1,1,0,6,3,1,4,3,4,6,8.9326,11.518,38.696,-2.134,23.762,3.3065,4,4,5,3,5,1,0,1,0
1,1,3,-2.134,3.3065,11.518,177,0.446,1,0,3,-1,1,1,4,5,1,5,3,1,4,5.0095,-8.5702,7.8813,-2.9396,1.8834,0.20321,4,5,3,2,4,1,0,1,1
1,0,5,-2.9396,0.20321,-8.5702,178,0.324,1,1,5,1,0,1,3,4,1,1,2,1,3,11.518,-9.5708,-2.134,-9.6409,3.3065,-5.7317,5,1,3,1,1,1,0,1,1
1,0,4,-9.6409,-5.7317,-9.5708,179,0.421,1,1,4,1,1,1,5,5,1,1,1,1,5,-8.5702,-14.651,-2.9396,10.203,0.20321,10.506,1,1,2,5,1,5,0,1,1
1,0,5,10.203,10.506,-14.651,180,0.409,1,1,5,1,1,1,4,4,1,1,5,5,4,-9.5708,3.2817,-9.6409,-6.3269,-5.7317,-1.7998,1,1,1,1,1,1,0,1,1
1,0,4,-6.3269,-1.7998,3.2817,181,0.41,0,1,4,-1,1,1,5,5,1,3,1,1,5,-14.651,14,10.203,3.107,10.506,4.374,1,3,5,3,5,3,0,1,0
1,0,5,3.107,4.374,14,182,0.374,1,1,5,1,1,1,4,5,1,5,3,3,4,3.2817,-4.9153,-6.3269,8.4511,-1.7998,7.3156,3,5,1,4,1,4,0,1,1
1,0,5,8.4511,7.3156,-4.9153,183,0.332,1,1,5,1,1,1,5,5,1,2,4,4,5,14,7.3359,3.107,-0.012567,4.374,-0.43448,5,2,3,2,3,2,0,1,1
1,0,5,-0.012567,-0.43448,7.3359,184,0.389,1,1,5,1,1,1,5,4,1,4,2,2,5,-4.9153,-4.0345,8.4511,7.157,7.3156,1.7713,2,4,4,2,4,4,0,1,1
1,0,4,7.157,1.7713,-4.0345,185,0.551,0,1,4,-1,1,1,5,5,1,2,2,4,5,7.3359,5.0044,-0.012567,1.0457,-0.43448,4.2383,4,2,2,3,2,2,0,1,0
1,0,5,1.0457,4.2383,5.0044,186,0.54,0,1,5,-1,1,1,4,4,1,4,3,2,4,-4.0345,1.8787,7.157,5.3985,1.7713,6.1815,2,4,2,4,4,4,0,1,0
1,0,4,5.3985,6.1815,1.8787,187,0.328,0,1,4,-1,1,1,5,4,1,3,4,4,5,5.0044,-3.1052,1.0457,-14.849,4.2383,-4.3865,4,3,3,1,2,1,0,1,0
1,0,4,-14.849,-4.3865,-3.1052,188,0.977,1,1,4,1,1,1,4,4,1,2,1,1,4,1.8787,3.719,5.3985,4.7812,6.1815,7.5856,3,2,4,4,4,3,0,1,1
1,0,4,4.7812,7.5856,3.719,189,0.381,1,1,4,1,1,1,4,4,1,3,4,3,4,-3.1052,-2.6293,-14.849,-0.83823,-4.3865,1.1094,2,3,1,2,1,2,0,1,1
1,0,4,-0.83823,1.1094,-2.6293,190,0.414,1,1,4,1,1,1,4,5,1,2,2,2,4,3.719,16.278,4.7812,4.5162,7.5856,7.6463,3,2,4,4,3,3,0,1,1
1,0,5,4.5162,7.6463,16.278,191,0.389,1,1,5,1,1,1,4,6,1,5,4,3,4,-2.6293,15.813,-0.83823,-1.5538,1.1094,4.6419,2,5,2,3,2,2,0,1,1
1,0,6,-1.5538,4.6419,15.813,192,0.442,0,1,6,-1,1,1,5,4,1,5,3,2,5,16.278,-3.7023,4.5162,4.9802,7.6463,0.876,5,5,4,2,3,4,0,1,0
1,0,4,4.9802,0.876,-3.7023,193,0.405,1,1,4,1,1,0,6,2,1,2,2,4,6,15.813,13.072,-1.5538,7.3377,4.6419,1.8893,5,2,3,3,2,4,0,1,1
1,1,2,7.3377,1.8893,13.072,194,0.397,0,0,2,1,1,0,4,1,1,5,3,4,4,-3.7023,21.677,4.9802,-13.328,0.876,-5.7492,2,5,2,1,4,1,0,1,0
1,1,1,-13.328,-5.7492,21.677,195,0.307,1,0,1,-1,0,1,2,5,1,5,1,1,2,13.072,10.393,7.3377,7.6007,1.8893,6.4957,5,5,3,4,4,4,0,1,1
1,0,5,7.6007,6.4957,10.393,196,0.36,1,1,5,1,0,0,1,4,1,5,4,4,1,21.677,29.801,-13.328,11.987,-5.7492,9.3169,5,5,1,5,1,5,0,1,1
1,1,4,11.987,9.3169,29.801,197,0.527,0,0,4,1,1,0,5,3,1,5,5,5,5,10.393,-5.8531,7.6007,-4.6171,6.4957,-4.3707,5,5,4,1,4,1,0,1,0
1,1,3,-4.6171,-4.3707,-5.8531,198,0.543,1,0,3,-1,0,0,4,2,1,2,1,1,4,29.801,15.417,11.987,9.9806,9.3169,6.5131,5,2,5,4,5,5,0,1,1
1,1,2,9.9806,6.5131,15.417,199,0.332,1,0,2,-1,0,0,3,1,1,5,4,5,3,-5.8531,13.087,-4.6171,-5.8864,-4.3707,-5.0767,2,5,1,1,1,1,0,1,1
1,1,1,-5.8864,-5.0767,13.087,200,0.39,0,0,1,1,0,1,2,6,1,5,1,1,2,15.417,-15.378,9.9806,-2.7172,6.5131,-3.0629,5,5,4,1,5,1,0,1,0
1,0,6,-2.7172,-3.0629,-15.378,201,0.487,0,1,6,-1,0,1,1,6,1,1,1,1,1,13.087,2.6396,-5.8864,9.1579,-5.0767,9.1087,5,1,1,5,1,5,0,1,0
1,0,6,9.1579,9.1087,2.6396,202,0.429,0,1,6,-1,1,1,6,6,1,3,5,5,6,-15.378,-1.9632,-2.7172,-5.2311,-3.0629,-1.7219,1,3,1,1,1,1,0,1,0
1,0,6,-5.2311,-1.7219,-1.9632,203,0.409,0,1,6,-1,1,1,6,6,1,2,1,1,6,2.6396,-3.9945,9.1579,-0.89232,9.1087,3.1557,3,2,5,3,5,2,0,1,0
1,0,6,-0.89232,3.1557,-3.9945,204,0.429,1,1,6,1,1,1,6,6,1,2,3,2,6,-1.9632,-11.269,-5.2311,-3.1222,-1.7219,0.92963,2,2,1,2,1,1,0,1,1
1,0,6,-3.1222,0.92963,-11.269,205,0.381,0,1,6,-1,1,1,6,6,1,1,2,1,6,-3.9945,-3.5192,-0.89232,16.634,3.1557,12.102,2,1,3,5,2,5,0,1,0
1,0,6,16.634,12.102,-3.5192,206,0.348,1,1,6,1,1,1,6,6,1,2,5,5,6,-11.269,11.307,-3.1222,9.4751,0.92963,5.1598,1,2,2,4,1,5,0,1,1
1,0,6,9.4751,5.1598,11.307,207,0.556,1,1,6,1,1,1,6,6,1,5,4,5,6,-3.5192,10.831,16.634,-4.017,12.102,1.9852,2,5,5,3,5,1,0,1,1
1,0,6,-4.017,1.9852,10.831,208,0.356,1,1,6,1,1,1,6,6,1,5,3,1,6,11.307,-4.9908,9.4751,2.8901,5.1598,-3.3645,5,5,4,1,5,3,0,1,1
1,0,6,2.8901,-3.3645,-4.9908,209,0.43,0,1,6,-1,1,1,6,6,1,2,1,3,6,10.831,-2.7024,-4.017,5.9357,1.9852,3.808,5,2,3,3,1,4,0,1,0
1,0,6,5.9357,3.808,-2.7024,210,0.515,0,1,6,-1,1,0,6,2,1,2,3,4,6,-4.9908,1.8235,2.8901,-6.1635,-3.3645,-0.041598,2,2,1,2,3,1,0,1,0
1,1,2,-6.1635,-0.041598,1.8235,211,0.36,1,0,2,-1,1,0,6,5,1,3,2,1,6,-2.7024,6.4557,5.9357,0.096194,3.808,-1.1574,2,3,3,2,4,2,0,1,1
1,1,5,0.096194,-1.1574,6.4557,212,0.588,0,0,5,1,0,1,2,6,1,4,2,2,2,1.8235,-0.50389,-6.1635,5.1998,-0.041598,5.768,3,4,2,4,1,4,0,1,0
1,0,6,5.1998,5.768,-0.50389,213,0.385,1,1,6,1,0,0,5,4,1,3,4,4,5,6.4557,-3.9146,0.096194,-3.9436,-1.1574,-4.9274,4,3,2,1,2,1,0,1,1
1,1,4,-3.9436,-4.9274,-3.9146,214,0.381,0,0,4,1,1,1,6,5,1,2,1,1,6,-0.50389,-4.1551,5.1998,17.887,5.768,8.9679,3,2,4,5,4,5,0,1,0
1,0,5,17.887,8.9679,-4.1551,215,0.629,1,1,5,1,0,1,4,5,1,2,5,5,4,-3.9146,7.2791,-3.9436,7.8483,-4.9274,9.3247,2,2,1,5,1,4,0,1,1
1,0,5,7.8483,9.3247,7.2791,216,0.511,0,1,5,-1,1,1,5,6,1,4,5,4,5,-4.1551,-2.9207,17.887,3.9312,8.9679,3.0715,2,4,5,3,5,3,0,1,0
1,0,6,3.9312,3.0715,-2.9207,217,0.47,0,1,6,-1,1,1,5,6,1,2,3,3,5,7.2791,-5.7521,7.8483,-0.18316,9.3247,5.954,4,2,5,4,4,2,0,1,0
1,0,6,-0.18316,5.954,-5.7521,218,0.332,1,1,6,1,1,1,6,6,1,2,4,2,6,-2.9207,-1.7684,3.9312,-10.004,3.0715,-3.4355,2,2,3,1,3,1,0,1,1
1,0,6,-10.004,-3.4355,-1.7684,219,1.033,1,1,6,1,1,1,6,6,1,2,1,1,6,-5.7521,-4.747,-0.18316,10.29,5.954,3.8397,2,2,4,3,2,5,0,1,1
1,0,6,10.29,3.8397,-4.747,220,0.454,1,1,6,1,1,1,6,6,1,2,3,5,6,-1.7684,-9.3495,-10.004,-13.1,-3.4355,-6.2789,2,2,1,1,1,1,0,1,1
1,0,6,-13.1,-6.2789,-9.3495,221,0.421,0,1,6,-1,1,1,6,5,1,1,1,1,6,-4.747,14.72,10.29,-13.83,3.8397,-3.2126,2,1,3,1,5,1,0,1,0
1,0,5,-13.83,-3.2126,14.72,222,0.458,0,1,5,-1,1,1,6,4,1,5,1,1,6,-9.3495,-11.606,-13.1,-3.9098,-6.2789,-9.1272,1,5,1,1,1,1,0,1,0
1,0,4,-3.9098,-9.1272,-11.606,223,0.442,0,1,4,-1,1,1,5,5,1,1,1,1,5,14.72,-4.4337,-13.83,-7.9967,-3.2126,-4.43,5,1,1,1,1,1,0,1,0
1,0,5,-7.9967,-4.43,-4.4337,224,0.397,1,1,5,1,1,1,4,6,1,2,1,1,4,-11.606,-5.9881,-3.9098,12.013,-9.1272,8.0422,1,2,1,4,1,5,0,1,1
1,0,6,12.013,8.0422,-5.9881,225,0.393,1,1,6,1,1,1,5,6,1,2,4,5,5,-4.4337,4.1911,-7.9967,-6.4092,-4.43,-1.3061,2,2,1,1,1,1,0,1,1
1,0,6,-6.4092,-1.3061,4.1911,226,0.437,0,1,6,-1,1,1,6,6,1,4,1,1,6,-5.9881,-8.9971,12.013,-1.396,8.0422,-1.4717,2,4,4,1,5,2,0,1,0
1,0,6,-1.396,-1.4717,-8.9971,227,0.368,0,1,6,-1,1,1,6,5,1,1,1,2,6,4.1911,11.745,-6.4092,3.6014,-1.3061,-0.67459,4,1,1,2,1,3,0,1,0
1,0,5,3.6014,-0.67459,11.745,228,0.368,0,1,5,-1,1,1,6,4,1,5,2,3,6,-8.9971,15.4,-1.396,13,-1.4717,11.819,1,5,1,5,2,5,0,1,0
1,0,4,13,11.819,15.4,229,0.352,1,1,4,1,1,1,5,6,1,5,5,5,5,11.745,-19.295,3.6014,-0.16914,-0.67459,-1.3873,5,5,2,1,3,2,0,1,1
1,0,6,-0.16914,-1.3873,-19.295,230,0.409,0,1,6,-1,1,1,4,6,1,1,1,2,4,15.4,-12.418,13,10.447,11.819,5.5913,5,1,5,4,5,5,0,1,0
1,0,6,10.447,5.5913,-12.418,231,0.58,1,1,6,1,1,1,6,6,1,1,4,5,6,-19.295,11.65,-0.16914,1.5793,-1.3873,4.3868,1,1,1,3,2,2,0,1,1
1,0,6,1.5793,4.3868,11.65,232,0.507,0,1,6,-1,1,1,6,5,1,5,3,2,6,-12.418,5.2733,10.447,5.9826,5.5913,5.2436,1,5,4,4,5,4,0,1,0
1,0,5,5.9826,5.2436,5.2733,233,0.348,0,1,5,-1,1,1,6,6,1,4,4,4,6,11.65,-1.0712,1.5793,-4.7197,4.3868,3.0214,5,4,3,3,2,1,0,1,0
1,0,6,-4.7197,3.0214,-1.0712,234,0.389,1,1,6,1,1,1,5,6,1,3,3,1,5,5.2733,-11.189,5.9826,11.497,5.2436,13.363,4,3,4,5,4,5,0,1,1
1,0,6,11.497,13.363,-11.189,235,0.356,0,1,6,-1,1,1,6,5,1,1,5,5,6,-1.0712,28.682,-4.7197,-6.7881,3.0214,3.8556,3,1,3,3,1,1,0,1,0
1,0,5,-6.7881,3.8556,28.682,236,0.381,0,1,5,-1,1,1,6,6,1,5,3,1,6,-11.189,24.837,11.497,-2.3649,13.363,1.8433,1,5,5,2,5,1,0,1,0
1,0,6,-2.3649,1.8433,24.837,237,0.531,1,1,6,1,1,1,5,6,1,5,2,1,5,28.682,-4.1324,-6.7881,2.0048,3.8556,6.5027,5,5,3,4,1,3,0,1,1
1,0,6,2.0048,6.5027,-4.1324,238,0.352,1,1,6,1,1,1,6,6,1,2,4,3,6,24.837,-3.1899,-2.3649,13.955,1.8433,10.913,5,2,2,5,1,5,0,1,1
1,0,6,13.955,10.913,-3.1899,239,0.328,0,1,6,-1,1,1,6,6,1,2,5,5,6,-4.1324,2.4099,2.0048,-12.448,6.5027,-7.2666,2,2,4,1,3,1,0,1,0
1,0,6,-12.448,-7.2666,2.4099,240,0.446,1,1,6,1,1,0,6,5,1,3,1,1,6,-3.1899,-18.696,13.955,-4.3394,10.913,-6.0563,2,3,5,1,5,1,0,1,1
1,1,5,-4.3394,-6.0563,-18.696,241,0.442,0,0,5,1,1,1,6,5,1,1,1,1,6,2.4099,7.8132,-12.448,0.9946,-7.2666,7.3272,3,1,1,4,1,2,0,1,0
1,0,5,0.9946,7.3272,7.8132,242,0.69,1,1,5,1,0,1,5,6,1,4,4,2,5,-18.696,-3.0596,-4.3394,-5.5984,-6.0563,-0.98461,1,4,1,2,1,1,0,1,1
1,0,6,-5.5984,-0.98461,-3.0596,243,0.312,1,1,6,1,1,1,5,6,1,2,2,1,5,7.8132,5.6876,0.9946,4.3329,7.3272,5.0765,4,2,4,4,2,3,0,1,1
1,0,6,4.3329,5.0765,5.6876,244,0.401,0,1,6,-1,1,1,6,6,1,4,4,3,6,-3.0596,-4.5252,-5.5984,4.9992,-0.98461,-2.8949,2,4,2,1,1,4,0,1,0
1,0,6,4.9992,-2.8949,-4.5252,245,0.413,0,1,6,-1,1,1,6,6,1,2,1,4,6,5.6876,-2.5628,4.3329,3.4282,5.0765,2.6551,4,2,4,3,3,3,0,1,0
1,0,6,3.4282,2.6551,-2.5628,246,0.344,1,1,6,1,1,1,6,6,1,2,3,3,6,-4.5252,-4.5274,4.9992,-8.6578,-2.8949,-6.7115,2,2,1,1,4,1,0,1,1
1,0,6,-8.6578,-6.7115,-4.5274,247,0.283,0,1,6,-1,1,1,6,6,1,2,1,1,6,-2.5628,2.8307,3.4282,2.4245,2.6551,1.0055,2,2,3,2,3,3,0,1,0
1,0,6,2.4245,1.0055,2.8307,248,0.377,0,1,6,-1,1,1,6,6,1,3,2,3,6,-4.5274,9.7352,-8.6578,-3.7511,-6.7115,-0.96221,2,3,1,2,1,1,0,1,0
1,0,6,-3.7511,-0.96221,9.7352,249,0.564,0,1,6,-1,1,1,6,6,1,4,2,1,6,2.8307,-9.3026,2.4245,-0.33732,1.0055,5.0677,3,4,2,4,3,2,0,1,0
1,0,6,-0.33732,5.0677,-9.3026,250,0.27,1,1,6,1,1,1,6,6,1,1,4,2,6,9.7352,-9.1784,-3.7511,0.74872,-0.96221,-0.52047,4,1,2,2,1,2,0,1,1
1,0,6,0.74872,-0.52047,-9.1784,251,0.278,0,1,6,-1,1,1,6,6,1,1,2,2,6,-9.3026,8.3764,-0.33732,2.6314,5.0677,2.5149,1,1,4,3,2,3,0,1,0
1,0,6,2.6314,2.5149,8.3764,252,0.36,1,1,6,1,1,1,6,6,1,4,3,3,6,-9.1784,-4.0882,0.74872,-3.7094,-0.52047,1.4107,1,4,2,2,2,1,0,1,1
1,0,6,-3.7094,1.4107,-4.0882,253,0.369,0,1,6,-1,1,1,6,6,1,2,2,1,6,8.3764,-5.5271,2.6314,-1.0156,2.5149,-0.77444,4,2,3,2,3,2,0,1,0
1,0,6,-1.0156,-0.77444,-5.5271,254,0.438,0,1,6,-1,1,1,6,6,1,2,2,2,6,-4.0882,5.1519,-3.7094,0.55735,1.4107,5.8204,2,2,2,4,1,2,0,1,0
1,0,6,0.55735,5.8204,5.1519,255,0.328,0,1,6,-1,1,1,6,4,1,4,4,2,6,-5.5271,1.3472,-1.0156,12.993,-0.77444,11.725,2,4,2,5,2,5,0,1,0
1,0,4,12.993,11.725,1.3472,256,0.601,1,1,4,1,1,1,6,6,1,3,5,5,6,5.1519,2.909,0.55735,-3.3212,5.8204,1.5112,4,3,4,2,2,1,0,1,1
1,0,6,-3.3212,1.5112,2.909,257,0.344,0,1,6,-1,1,1,4,6,1,3,2,1,4,1.3472,10.811,12.993,4.3191,11.725,9.5559,3,3,5,5,5,3,0,1,0
1,0,6,4.3191,9.5559,10.811,258,0.393,1,1,6,1,1,1,6,6,1,5,5,3,6,2.909,5.8888,-3.3212,2.0595,1.5112,1.5062,3,5,2,2,1,3,0,1,1
1,0,6,2.0595,1.5062,5.8888,259,0.364,1,1,6,1,1,1,6,5,1,4,2,3,6,10.811,-3.8635,4.3191,-2.8587,9.5559,-5.7805,5,4,5,1,3,1,0,1,1
1,0,5,-2.8587,-5.7805,-3.8635,260,0.507,1,1,5,1,1,1,6,6,1,2,1,1,6,5.8888,12.938,2.0595,7.6937,1.5062,11.792,4,2,2,5,3,4,0,1,1
1,0,6,7.6937,11.792,12.938,261,0.348,0,1,6,-1,1,1,5,6,1,5,5,4,5,-3.8635,11.257,-2.8587,10.901,-5.7805,10.856,2,5,1,5,1,5,0,1,0
1,0,6,10.901,10.856,11.257,262,0.307,1,1,6,1,1,1,6,6,1,5,5,5,6,12.938,3.8566,7.6937,2.902,11.792,9.2788,5,5,5,5,4,3,0,1,1
1,0,6,2.902,9.2788,3.8566,263,0.356,1,1,6,1,1,1,6,2,1,3,5,3,6,11.257,6.7451,10.901,-3.2905,10.856,-4.4474,5,3,5,1,5,1,0,1,1
1,0,2,-3.2905,-4.4474,6.7451,264,0.454,1,1,2,1,1,1,6,5,1,4,1,1,6,3.8566,-2.7892,2.902,10.569,9.2788,9.5703,3,4,5,5,3,5,0,1,1
1,0,5,10.569,9.5703,-2.7892,265,0.368,1,1,5,1,1,1,2,6,1,2,5,5,2,6.7451,2.3864,-3.2905,7.3251,-4.4474,8.6039,4,2,1,5,1,4,0,1,1
1,0,6,7.3251,8.6039,2.3864,266,0.393,0,1,6,-1,1,1,5,4,1,3,5,4,5,-2.7892,9.2797,10.569,6.6999,9.5703,9.8327,2,3,5,5,5,4,0,1,0
1,0,4,6.6999,9.8327,9.2797,267,0.487,0,1,4,-1,1,1,6,4,1,4,5,4,6,2.3864,-8.9688,7.3251,2.0191,8.6039,1.9811,3,4,5,3,4,3,0,1,0
1,0,4,2.0191,1.9811,-8.9688,268,0.36,1,1,4,1,1,1,4,6,1,1,3,3,4,9.2797,7.7672,6.6999,10.304,9.8327,10.632,4,1,5,5,4,5,0,1,1
1,0,6,10.304,10.632,7.7672,269,0.328,0,1,6,-1,1,1,4,3,1,4,5,5,4,-8.9688,14.72,2.0191,0.42799,1.9811,9.6322,1,4,3,5,3,2,0,1,0
1,0,3,0.42799,9.6322,14.72,270,0.442,1,1,3,1,1,1,6,5,1,5,5,2,6,7.7672,-9.304,10.304,6.5534,10.632,1.7479,4,5,5,2,5,4,0,1,1
1,0,5,6.5534,1.7479,-9.304,271,0.442,0,1,5,-1,1,1,3,4,1,1,2,4,3,14.72,-6.1065,0.42799,-0.42627,9.6322,-1.5734,5,1,5,1,2,2,0,1,0
1,0,4,-0.42627,-1.5734,-6.1065,272,0.393,1,1,4,1,1,1,5,5,1,2,1,2,5,-9.304,-3.9696,6.5534,-1.1399,1.7479,2.783,1,2,2,3,4,2,0,1,1
1,0,5,-1.1399,2.783,-3.9696,273,0.36,0,1,5,-1,1,1,4,5,1,2,3,2,4,-6.1065,0.11471,-0.42627,0.25981,-1.5734,4.114,2,2,1,3,2,2,0,1,0
1,0,5,0.25981,4.114,0.11471,274,0.466,1,1,5,1,1,1,5,3,1,3,3,2,5,-3.9696,10.467,-1.1399,-2.5769,2.783,1.1446,2,3,3,2,2,1,0,1,1
1,0,3,-2.5769,1.1446,10.467,275,0.418,1,1,3,1,1,1,5,5,1,5,2,1,5,0.11471,17.956,0.25981,8.2497,4.114,7.8889,3,5,3,4,2,4,0,1,1
1,0,5,8.2497,7.8889,17.956,276,0.544,0,1,5,-1,1,1,3,6,1,5,4,4,3,10.467,0.019654,-2.5769,3.3259,1.1446,0.81934,5,5,2,2,1,3,0,1,0
1,0,6,3.3259,0.81934,0.019654,277,0.364,0,1,6,-1,1,1,5,5,1,3,2,3,5,17.956,6.2044,8.2497,0.67339,7.8889,2.9906,5,3,4,3,4,2,0,1,0
1,0,5,0.67339,2.9906,6.2044,278,0.311,1,1,5,1,1,1,6,4,1,4,3,2,6,0.019654,-5.0294,3.3259,10.039,0.81934,5.5581,3,4,2,4,3,5,0,1,1
1,0,4,10.039,5.5581,-5.0294,279,0.438,1,1,4,1,1,1,5,5,1,2,4,5,5,6.2044,12.842,0.67339,-0.94324,2.9906,11.611,4,2,3,5,2,2,0,1,1
1,0,5,-0.94324,11.611,12.842,280,0.34,0,1,5,-1,1,1,4,5,1,5,5,2,4,-5.0294,-12.402,10.039,3.3358,5.5581,1.1339,2,5,4,2,5,3,0,1,0
1,0,5,3.3358,1.1339,-12.402,281,0.324,0,1,5,-1,1,1,5,6,1,1,2,3,5,12.842,-0.37206,-0.94324,7.5558,11.611,5.5355,5,1,5,4,2,4,0,1,0
1,0,6,7.5558,5.5355,-0.37206,282,0.356,1,1,6,1,1,1,5,6,1,3,4,4,5,-12.402,-10.828,3.3358,14.524,1.1339,10.982,1,3,2,5,3,5,0,1,1
1,0,6,14.524,10.982,-10.828,283,0.344,1,1,6,1,1,1,6,4,1,1,5,5,6,-0.37206,-3.5775,7.5558,0.32361,5.5355,3.5726,3,1,4,3,4,2,0,1,1
1,0,4,0.32361,3.5726,-3.5775,284,0.344,1,1,4,1,1,1,6,5,1,2,3,2,6,-10.828,-16.332,14.524,-0.33289,10.982,4.7612,1,2,5,4,5,2,0,1,1
1,0,5,-0.33289,4.7612,-16.332,285,0.389,0,1,5,-1,1,1,4,5,1,1,4,2,4,-3.5775,20.826,0.32361,2.4786,3.5726,8.5444,2,1,3,5,2,3,0,1,0
1,0,5,2.4786,8.5444,20.826,286,0.303,0,1,5,-1,1,1,5,5,1,5,5,3,5,-16.332,-3.1434,-0.33289,10.121,4.7612,3.6285,1,5,4,3,2,5,0,1,0
1,0,5,10.121,3.6285,-3.1434,287,0.373,1,1,5,1,1,1,5,5,1,2,3,5,5,20.826,-4.8496,2.4786,-2.4298,8.5444,1.7191,5,2,5,2,3,1,0,1,1
1,0,5,-2.4298,1.7191,-4.8496,288,0.393,0,1,5,-1,1,1,5,5,1,2,2,1,5,-3.1434,0.43679,10.121,-3.3694,3.6285,-0.3844,2,2,3,2,5,1,0,1,0
1,0,5,-3.3694,-0.3844,0.43679,289,0.389,1,1,5,1,1,1,5,6,1,3,2,1,5,-4.8496,-7.334,-2.4298,5.8943,1.7191,-1.3181,2,3,2,1,1,4,0,1,1
1,0,6,5.8943,-1.3181,-7.334,290,0.344,0,1,6,-1,1,1,5,6,1,1,1,4,5,0.43679,-18.511,-3.3694,4.768,-0.3844,1.7556,3,1,2,2,1,3,0,1,0
1,0,6,4.768,1.7556,-18.511,291,0.377,1,1,6,1,1,1,6,6,1,1,2,3,6,-7.334,-7.8877,5.8943,0.67376,-1.3181,3.8329,1,1,1,3,4,2,0,1,1
1,0,6,0.67376,3.8329,-7.8877,292,0.34,0,1,6,-1,1,1,6,6,1,1,3,2,6,-18.511,-0.25562,4.768,4.3506,1.7556,4.6706,1,1,2,3,3,3,0,1,0
1,0,6,4.3506,4.6706,-0.25562,293,0.324,1,1,6,1,1,1,6,6,1,3,3,3,6,-7.8877,12.032,0.67376,1.6389,3.8329,3.7335,1,3,3,3,2,2,0,1,1
1,0,6,1.6389,3.7335,12.032,294,0.36,1,1,6,1,1,1,6,4,1,5,3,2,6,-0.25562,-0.84071,4.3506,-9.5109,4.6706,-9.1976,3,5,3,1,3,1,0,1,1
1,0,4,-9.5109,-9.1976,-0.84071,295,0.421,1,1,4,1,1,1,6,6,1,3,1,1,6,12.032,5.7725,1.6389,-6.9363,3.7335,-5.4683,5,3,3,1,2,1,0,1,1
1,0,6,-6.9363,-5.4683,5.7725,296,0.409,1,1,6,1,1,1,4,6,1,4,1,1,4,-0.84071,1.8394,-9.5109,8.1894,-9.1976,5.9508,3,4,1,4,1,4,0,1,1
1,0,6,8.1894,5.9508,1.8394,297,0.377,0,1,6,-1,1,1,6,6,1,3,4,4,6,5.7725,1.0575,-6.9363,14.887,-5.4683,18.931,4,3,1,5,1,5,0,1,0
1,0,6,14.887,18.931,1.0575,298,0.316,1,1,6,1,1,1,6,6,1,3,5,5,6,1.8394,6.345,8.1894,16.781,5.9508,13.063,3,3,4,5,4,5,0,1,1
1,0,6,16.781,13.063,6.345,299,0.35,0,1,6,-1,1,1,6,6,1,4,5,5,6,1.0575,-10.078,14.887,-5.7285,18.931,-3.4766,3,4,5,1,5,1,0,1,0
1,0,6,-5.7285,-3.4766,-10.078,300,0.397,0,1,6,-1,1,1,6,6,1,1,1,1,6,6.345,4.7082,16.781,8.9513,13.063,11.549,4,1,5,5,5,4,0,1,0
1,0,6,8.9513,11.549,4.7082,301,0.381,1,1,6,1,1,1,6,6,1,4,5,4,6,-10.078,-7.5841,-5.7285,5.6184,-3.4766,3.7554,1,4,1,3,1,4,0,1,1
1,0,6,5.6184,3.7554,-7.5841,302,0.487,0,1,6,-1,1,1,6,6,1,1,3,4,6,4.7082,-19.463,8.9513,1.1513,11.549,-0.29097,4,1,5,2,4,2,0,1,0
1,0,6,1.1513,-0.29097,-19.463,303,0.364,1,1,6,1,1,0,6,6,1,1,2,2,6,-7.5841,6.3512,5.6184,8.8721,3.7554,6.6608,1,1,3,4,4,4,0,1,1
1,1,6,8.8721,6.6608,6.3512,304,0.344,0,0,6,1,1,0,6,1,1,4,4,4,6,-19.463,33.981,1.1513,10.945,-0.29097,8.8693,1,4,2,5,2,5,0,1,0
1,1,1,10.945,8.8693,33.981,305,0.352,1,0,1,-1,0,1,6,6,1,5,5,5,6,6.3512,0.33739,8.8721,9.4519,6.6608,3.8278,4,5,4,3,4,5,0,1,1
1,0,6,9.4519,3.8278,0.33739,306,0.377,0,1,6,-1,0,1,1,3,1,3,3,5,1,33.981,-7.4897,10.945,-10.755,8.8693,-5.9553,5,3,5,1,5,1,0,1,0
1,0,3,-10.755,-5.9553,-7.4897,307,0.397,1,1,3,1,1,1,6,6,1,1,1,1,6,0.33739,24.226,9.4519,9.1889,3.8278,9.9841,3,1,3,5,5,5,0,1,1
1,0,6,9.1889,9.9841,24.226,308,0.356,0,1,6,-1,1,1,3,6,1,5,5,5,3,-7.4897,-0.070936,-10.755,15.716,-5.9553,12.313,1,5,1,5,1,5,0,1,0
1,0,6,15.716,12.313,-0.070936,309,0.328,0,1,6,-1,1,1,6,6,1,3,5,5,6,24.226,12.372,9.1889,12.794,9.9841,15.374,5,3,5,5,5,5,0,1,0
1,0,6,12.794,15.374,12.372,310,0.372,0,1,6,-1,1,1,6,4,1,5,5,5,6,-0.070936,8.1123,15.716,-2.0689,12.313,-1.7998,3,5,5,1,5,2,0,1,0
1,0,4,-2.0689,-1.7998,8.1123,311,0.486,1,1,4,1,1,1,6,6,1,4,1,2,6,12.372,-3.057,12.794,-1.5648,15.374,0.85302,5,4,5,2,5,2,0,1,1
1,0,6,-1.5648,0.85302,-3.057,312,0.315,0,1,6,-1,1,1,4,6,1,2,2,2,4,8.1123,-12.769,-2.0689,2.4612,-1.7998,3.5156,4,2,1,3,2,3,0,1,0
1,0,6,2.4612,3.5156,-12.769,313,0.446,1,1,6,1,1,1,6,6,1,1,3,3,6,-3.057,5.8007,-1.5648,4.2337,0.85302,5.7032,2,1,2,4,2,3,0,1,1
1,0,6,4.2337,5.7032,5.8007,314,0.32,0,1,6,-1,1,1,6,6,1,4,4,3,6,-12.769,1.392,2.4612,-4.026,3.5156,-5.1771,1,4,3,1,3,1,0,1,0
1,0,6,-4.026,-5.1771,1.392,315,0.409,1,1,6,1,1,1,6,6,1,3,1,1,6,5.8007,17.596,4.2337,6.9978,5.7032,8.7225,4,3,4,5,3,4,0,1,1
1,0,6,6.9978,8.7225,17.596,316,0.299,0,1,6,-1,1,1,6,4,1,5,5,4,6,1.392,11.166,-4.026,8.0073,-5.1771,5.2368,3,5,1,4,1,4,0,1,0
1,0,4,8.0073,5.2368,11.166,317,0.307,1,1,4,1,1,1,6,4,1,5,4,4,6,17.596,-6.7157,6.9978,5.8231,8.7225,6.0379,5,5,5,4,4,4,0,1,1
1,0,4,5.8231,6.0379,-6.7157,318,0.495,1,1,4,1,1,1,4,6,1,2,4,4,4,11.166,8.0625,8.0073,-0.32574,5.2368,-0.36599,5,2,4,2,4,2,0,1,1
1,0,6,-0.32574,-0.36599,8.0625,319,0.381,0,1,6,-1,1,1,4,6,1,4,2,2,4,-6.7157,-12.372,5.8231,-9.1166,6.0379,-2.2294,2,4,4,1,4,1,0,1,0
1,0,6,-9.1166,-2.2294,-12.372,320,0.393,0,1,6,-1,1,1,6,6,1,1,1,1,6,8.0625,9.5971,-0.32574,10.648,-0.36599,14.882,4,1,2,5,2,5,0,1,0
1,0,6,10.648,14.882,9.5971,321,0.328,1,1,6,1,1,1,6,6,1,4,5,5,6,-12.372,-3.0997,-9.1166,-7.8181,-2.2294,-5.9867,1,4,1,1,1,1,0,1,1
1,0,6,-7.8181,-5.9867,-3.0997,322,0.417,1,1,6,1,1,1,6,6,1,2,1,1,6,9.5971,10.31,10.648,-0.40014,14.882,4.5829,4,2,5,3,5,2,0,1,1
1,0,6,-0.40014,4.5829,10.31,323,0.348,0,1,6,-1,1,1,6,4,1,5,3,2,6,-3.0997,-3.5344,-7.8181,1.0259,-5.9867,1.2525,2,5,1,2,1,2,0,1,0
1,0,4,1.0259,1.2525,-3.5344,324,0.332,1,1,4,1,1,1,6,6,1,2,2,2,6,10.31,11.277,-0.40014,-2.1441,4.5829,1.1589,5,2,3,2,2,1,0,1,1
1,0,6,-2.1441,1.1589,11.277,325,0.254,0,1,6,-1,1,1,4,6,1,5,2,1,4,-3.5344,7.3148,1.0259,-2.1084,1.2525,3.9448,2,5,2,3,2,1,0,1,0
1,0,6,-2.1084,3.9448,7.3148,326,0.316,0,1,6,-1,1,1,6,6,1,4,3,1,6,11.277,-6.9008,-2.1441,0.41628,1.1589,4.8885,5,4,2,4,1,2,0,1,0
1,0,6,0.41628,4.8885,-6.9008,327,0.413,0,1,6,-1,1,1,6,6,1,2,4,2,6,7.3148,-4.6432,-2.1084,2.6798,3.9448,4.2796,4,2,3,3,1,3,0,1,0
1,0,6,2.6798,4.2796,-4.6432,328,0.421,0,1,6,-1,1,1,6,5,1,2,3,3,6,-6.9008,15.829,0.41628,-5.3268,4.8885,-1.5889,2,2,4,1,2,1,0,1,0
1,0,5,-5.3268,-1.5889,15.829,329,0.45,1,1,5,1,1,1,6,5,1,5,1,1,6,-4.6432,-6.2404,2.6798,-8.0023,4.2796,-7.4732,2,5,3,1,3,1,0,1,1
1,0,5,-8.0023,-7.4732,-6.2404,330,0.434,1,1,5,1,1,1,5,5,1,2,1,1,5,15.829,-24.839,-5.3268,-4.5724,-1.5889,-1.3378,5,2,1,1,1,1,0,1,1
1,0,5,-4.5724,-1.3378,-24.839,331,0.413,1,1,5,1,1,1,5,5,1,1,1,1,5,-6.2404,-1.9223,-8.0023,3.9771,-7.4732,7.0374,2,1,1,4,1,3,0,1,1
1,0,5,3.9771,7.0374,-1.9223,332,0.377,0,1,5,-1,1,0,5,1,1,2,4,3,5,-24.839,15.745,-4.5724,-2.2626,-1.3378,1.1324,1,2,1,2,1,1,0,1,0
1,1,1,-2.2626,1.1324,15.745,333,0.315,1,0,1,-1,1,1,5,6,1,5,2,1,5,-1.9223,-0.38259,3.9771,0.3802,7.0374,2.1712,2,5,4,3,3,2,0,1,1
1,0,6,0.3802,2.1712,-0.38259,334,0.511,1,1,6,1,0,1,1,6,1,3,3,2,1,15.745,8.6782,-2.2626,3.3415,1.1324,2.2617,5,3,2,3,1,3,0,1,1
1,0,6,3.3415,2.2617,8.6782,335,0.434,1,1,6,1,1,1,6,6,1,4,3,3,6,-0.38259,12.127,0.3802,8.7015,2.1712,11.549,3,4,3,5,2,4,0,1,1
1,0,6,8.7015,11.549,12.127,336,0.364,0,1,6,-1,1,1,6,6,1,5,5,4,6,8.6782,-9.1412,3.3415,12.546,2.2617,13.296,4,5,3,5,3,5,0,1,0
1,0,6,12.546,13.296,-9.1412,337,0.364,1,1,6,1,1,1,6,6,1,1,5,5,6,12.127,3.0958,8.7015,-0.51935,11.549,4.8996,5,1,5,4,4,2,0,1,1
1,0,6,-0.51935,4.8996,3.0958,338,0.295,0,1,6,-1,1,0,6,1,1,3,4,2,6,-9.1412,16.532,12.546,1.6912,13.296,2.1839,1,3,5,3,5,2,0,1,0
1,1,1,1.6912,2.1839,16.532,339,0.373,1,0,1,-1,1,0,6,4,1,5,3,2,6,3.0958,11.03,-0.51935,-1.4706,4.8996,1.2112,3,5,4,2,2,2,0,1,1
1,1,4,-1.4706,1.2112,11.03,340,0.523,1,0,4,-1,0,1,1,5,1,5,2,2,1,16.532,-1.8428,1.6912,8.007,2.1839,7.1994,5,5,3,4,2,4,0,1,1
1,0,5,8.007,7.1994,-1.8428,341,0.364,1,1,5,1,0,1,4,5,1,2,4,4,4,11.03,-13.118,-1.4706,7.9714,1.2112,0.74873,5,2,2,2,2,4,0,1,1
1,0,5,7.9714,0.74873,-13.118,342,0.474,1,1,5,1,1,1,5,6,1,1,2,4,5,-1.8428,27.806,8.007,9.0427,7.1994,6.4135,2,1,4,4,4,5,0,1,1
1,0,6,9.0427,6.4135,27.806,343,0.291,0,1,6,-1,1,0,5,2,1,5,4,5,5,-13.118,2.1382,7.9714,2.0211,0.74873,0.2848,1,5,2,2,4,3,0,1,0
1,1,2,2.0211,0.2848,2.1382,344,0.39,1,0,2,-1,1,0,6,5,1,3,2,3,6,27.806,-1.3315,9.0427,-3.4873,6.4135,-0.71535,5,3,4,2,5,1,0,1,1
1,1,5,-3.4873,-0.71535,-1.3315,345,0.311,1,0,5,-1,0,0,2,5,1,3,2,1,2,2.1382,-5.6123,2.0211,-6.1237,0.2848,0.56336,3,3,2,2,3,1,0,1,1
1,1,5,-6.1237,0.56336,-5.6123,346,0.419,1,0,5,-1,0,1,5,6,1,2,2,1,5,-1.3315,-1.3926,-3.4873,7.2409,-0.71535,4.8237,3,2,2,4,1,4,0,1,1
1,0,6,7.2409,4.8237,-1.3926,347,0.373,0,1,6,-1,0,1,5,6,1,3,4,4,5,-5.6123,-13.342,-6.1237,5.4772,0.56336,-0.32952,2,3,2,2,1,4,0,1,0
1,0,6,5.4772,-0.32952,-13.342,348,0.385,1,1,6,1,1,1,6,6,1,1,2,4,6,-1.3926,1.2938,7.2409,-0.90641,4.8237,3.0677,3,1,4,3,4,2,0,1,1
1,0,6,-0.90641,3.0677,1.2938,349,0.356,1,1,6,1,1,1,6,6,1,3,3,2,6,-13.342,-9.2705,5.4772,10.077,-0.32952,8.9183,1,3,2,5,4,5,0,1,1
1,0,6,10.077,8.9183,-9.2705,350,0.336,0,1,6,-1,1,0,6,3,1,1,5,5,6,1.2938,10.275,-0.90641,-3.8311,3.0677,2.5452,3,1,3,3,2,1,0,1,0
1,1,3,-3.8311,2.5452,10.275,351,0.315,1,0,3,-1,1,0,6,2,1,5,3,1,6,-9.2705,-0.49188,10.077,14.741,8.9183,10.385,1,5,5,5,5,5,0,1,1
1,1,2,14.741,10.385,-0.49188,352,0.311,0,0,2,1,0,1,3,6,1,3,5,5,3,10.275,-0.74029,-3.8311,14.791,2.5452,13.992,5,3,3,5,1,5,0,1,0
1,0,6,14.791,13.992,-0.74029,353,0.332,1,1,6,1,0,1,2,6,1,3,5,5,2,-0.49188,2.0678,14.741,6.3234,10.385,10.336,3,3,5,5,5,4,0,1,1
1,0,6,6.3234,10.336,2.0678,354,0.397,1,1,6,1,1,1,6,6,1,3,5,4,6,-0.74029,2.1436,14.791,0.19094,13.992,0.79943,3,3,5,2,5,2,0,1,1
1,0,6,0.19094,0.79943,2.1436,355,0.454,1,1,6,1,1,1,6,6,1,3,2,2,6,2.0678,5.47,6.3234,6.706,10.336,10.72,3,3,5,5,4,4,0,1,1
1,0,6,6.706,10.72,5.47,356,0.328,0,1,6,-1,1,1,6,3,1,4,5,4,6,2.1436,19.648,0.19094,-0.63092,0.79943,2.7825,3,4,2,3,2,2,0,1,0
1,0,3,-0.63092,2.7825,19.648,357,0.352,1,1,3,1,1,1,6,4,1,5,3,2,6,5.47,0.052571,6.706,10.213,10.72,10.023,4,5,5,5,4,5,0,1,1
1,0,4,10.213,10.023,0.052571,358,0.295,1,1,4,1,1,0,3,5,1,3,5,5,3,19.648,7.7604,-0.63092,3.1688,2.7825,-2.4829,5,3,3,1,2,3,0,1,1
1,1,5,3.1688,-2.4829,7.7604,359,0.295,0,0,5,1,1,1,4,6,1,4,1,3,4,0.052571,-4.6396,10.213,-1.0745,10.023,-1.884,3,4,5,1,5,2,0,1,0
1,0,6,-1.0745,-1.884,-4.6396,360,0.615,0,1,6,-1,0,1,5,5,1,2,1,2,5,7.7604,-6.7493,3.1688,8.3608,-2.4829,13.808,4,2,1,5,3,4,0,1,0
1,0,5,8.3608,13.808,-6.7493,361,0.348,1,1,5,1,1,1,6,5,1,2,5,4,6,-4.6396,12.604,-1.0745,5.6999,-1.884,4.0734,2,2,1,3,2,4,0,1,1
1,0,5,5.6999,4.0734,12.604,362,0.36,0,1,5,-1,1,1,5,5,1,5,3,4,5,-6.7493,-14.696,8.3608,7.2674,13.808,4.8612,2,5,5,4,4,4,0,1,0
1,0,5,7.2674,4.8612,-14.696,363,0.344,0,1,5,-1,1,1,5,4,1,1,4,4,5,12.604,-4.0401,5.6999,13.396,4.0734,11.961,5,1,3,5,4,5,0,1,0
1,0,4,13.396,11.961,-4.0401,364,0.527,0,1,4,-1,1,1,5,5,1,2,5,5,5,-14.696,12.813,7.2674,4.1403,4.8612,6.129,1,2,4,4,4,3,0,1,0
1,0,5,4.1403,6.129,12.813,365,0.348,1,1,5,1,1,0,4,4,1,5,4,3,4,-4.0401,12.84,13.396,12.647,11.961,6.0878,2,5,5,4,5,5,0,1,1
1,1,4,12.647,6.0878,12.84,366,0.328,0,0,4,1,1,1,5,6,1,5,4,5,5,12.813,12.373,4.1403,2.2514,6.129,6.2314,5,5,4,4,3,3,0,1,0
1,0,6,2.2514,6.2314,12.373,367,0.458,0,1,6,-1,0,1,4,5,1,5,4,3,4,12.84,-5.4245,12.647,-4.1772,6.0878,-5.3321,5,5,4,1,5,1,0,1,0
1,0,5,-4.1772,-5.3321,-5.4245,368,0.458,0,1,5,-1,1,1,6,5,1,2,1,1,6,12.373,6.8169,2.2514,7.8596,6.2314,8.9804,5,2,4,5,3,4,0,1,0
1,0,5,7.8596,8.9804,6.8169,369,0.625,1,1,5,1,1,1,5,6,1,4,5,4,5,-5.4245,3.5031,-4.1772,12.135,-5.3321,12.156,2,4,1,5,1,5,0,1,1
1,0,6,12.135,12.156,3.5031,370,0.523,1,1,6,1,1,1,5,6,1,3,5,5,5,6.8169,9.6706,7.8596,6.8604,8.9804,1.2494,4,3,5,2,4,4,0,1,1
1,0,6,6.8604,1.2494,9.6706,371,0.527,1,1,6,1,1,1,6,6,1,4,2,4,6,3.5031,-10.13,12.135,-3.5206,12.156,0.47715,3,4,5,2,5,1,0,1,1
1,0,6,-3.5206,0.47715,-10.13,372,0.381,0,1,6,-1,1,1,6,6,1,1,2,1,6,9.6706,7.8616,6.8604,12.6,1.2494,10.402,4,1,2,5,4,5,0,1,0
1,0,6,12.6,10.402,7.8616,373,0.328,0,1,6,-1,1,1,6,6,1,4,5,5,6,-10.13,0.034369,-3.5206,14.113,0.47715,9.6037,1,4,2,5,1,5,0,1,0
1,0,6,14.113,9.6037,0.034369,374,0.556,1,1,6,1,1,1,6,6,1,3,5,5,6,7.8616,5.3388,12.6,3.2504,10.402,6.9369,4,3,5,4,5,3,0,1,1
1,0,6,3.2504,6.9369,5.3388,375,0.295,1,1,6,1,1,1,6,6,1,4,4,3,6,0.034369,6.928,14.113,6.0939,9.6037,4.104,3,4,5,3,5,4,0,1,1
1,0,6,6.0939,4.104,6.928,376,0.364,1,1,6,1,1,1,6,6,1,4,3,4,6,5.3388,-9.9719,3.2504,0.4033,6.9369,3.2938,4,4,4,3,3,2,0,1,1
1,0,6,0.4033,3.2938,-9.9719,377,0.409,0,1,6,-1,1,1,6,6,1,1,3,2,6,6.928,6.2445,6.0939,-4.2359,4.104,-0.15307,4,1,3,2,4,1,0,1,0
1,0,6,-4.2359,-0.15307,6.2445,378,0.393,0,1,6,-1,1,1,6,6,1,4,2,1,6,-9.9719,6.7319,0.4033,9.9725,3.2938,7.7856,1,4,3,4,2,5,0,1,0
1,0,6,9.9725,7.7856,6.7319,379,0.373,0,1,6,-1,1,1,6,6,1,4,4,5,6,6.2445,14.398,-4.2359,6.9395,-0.15307,4.5156,4,4,2,3,1,4,0,1,0
1,0,6,6.9395,4.5156,14.398,380,0.332,0,1,6,-1,1,1,6,5,1,5,3,4,6,6.7319,-15.862,9.9725,10.989,7.7856,6.4293,4,5,4,4,5,5,0,1,0
1,0,5,10.989,6.4293,-15.862,381,0.368,0,1,5,-1,1,1,6,4,1,1,4,5,6,14.398,18.13,6.9395,-1.8838,4.5156,2.6925,5,1,3,3,4,2,0,1,0
1,0,4,-1.8838,2.6925,18.13,382,0.32,1,1,4,1,1,1,5,5,1,5,3,2,5,-15.862,1.0071,10.989,-5.9685,6.4293,-2.393,1,5,4,1,5,1,0,1,1
1,0,5,-5.9685,-2.393,1.0071,383,0.274,0,1,5,-1,1,1,4,5,1,3,1,1,4,18.13,14.635,-1.8838,9.4498,2.6925,9.8774,5,3,3,5,2,5,0,1,0
1,0,5,9.4498,9.8774,14.635,384,0.316,0,1,5,-1,1,0,5,3,1,5,5,5,5,1.0071,7.7199,-5.9685,-2.0997,-2.393,-1.7055,3,5,1,1,1,1,0,1,0
1,1,3,-2.0997,-1.7055,7.7199,385,0.466,0,0,3,1,1,1,5,5,1,4,1,1,5,14.635,-4.4027,9.4498,7.2281,9.8774,-1.7363,5,4,5,1,5,4,0,1,0
1,0,5,7.2281,-1.7363,-4.4027,386,0.478,0,1,5,-1,0,1,3,6,1,2,1,4,3,7.7199,5.9344,-2.0997,8.8124,-1.7055,7.8806,4,2,1,4,1,4,0,1,0
1,0,6,8.8124,7.8806,5.9344,387,0.352,0,1,6,-1,1,1,5,6,1,4,4,4,5,-4.4027,-3.4012,7.2281,0.57214,-1.7363,-5.0747,2,4,1,1,4,2,0,1,0
1,0,6,0.57214,-5.0747,-3.4012,388,0.274,0,1,6,-1,1,1,6,4,1,2,1,2,6,5.9344,11.909,8.8124,3.7,7.8806,8.0865,4,2,4,4,4,3,0,1,0
1,0,4,3.7,8.0865,11.909,389,0.523,1,1,4,1,1,1,6,6,1,5,4,3,6,-3.4012,8.2267,0.57214,1.9689,-5.0747,5.1815,2,5,1,4,2,3,0,1,1
1,0,6,1.9689,5.1815,8.2267,390,0.287,0,1,6,-1,1,1,4,6,1,4,4,3,4,11.909,9.0359,3.7,4.3008,8.0865,1.9545,5,4,4,3,3,3,0,1,0
1,0,6,4.3008,1.9545,9.0359,391,0.332,0,1,6,-1,1,0,6,2,1,4,3,3,6,8.2267,11.874,1.9689,11.567,5.1815,10.642,4,4,4,5,3,5,0,1,0
1,1,2,11.567,10.642,11.874,392,0.344,0,0,2,1,1,0,6,4,1,5,5,5,6,9.0359,-18.807,4.3008,-3.0074,1.9545,-5.9021,4,5,3,1,3,1,0,1,0
1,1,4,-3.0074,-5.9021,-18.807,393,0.474,0,0,4,1,0,1,2,6,1,1,1,1,2,11.874,9.0773,11.567,-2.4835,10.642,3.0563,5,1,5,3,5,1,0,1,0
1,0,6,-2.4835,3.0563,9.0773,394,0.316,0,1,6,-1,0,1,4,6,1,4,3,1,4,-18.807,5.7265,-3.0074,7.7712,-5.9021,7.7686,1,4,1,4,1,4,0,1,0
1,0,6,7.7712,7.7686,5.7265,395,0.315,0,1,6,-1,1,1,6,6,1,4,4,4,6,9.0773,-21.508,-2.4835,-5.6678,3.0563,1.3288,4,4,3,2,1,1,0,1,0
1,0,6,-5.6678,1.3288,-21.508,396,0.417,1,1,6,1,1,1,6,6,1,1,2,1,6,5.7265,6.4769,7.7712,12.147,7.7686,7.9889,4,1,4,4,4,5,0,1,1
1,0,6,12.147,7.9889,6.4769,397,0.311,0,1,6,-1,1,1,6,6,1,4,4,5,6,-21.508,9.2968,-5.6678,0.55175,1.3288,7.0104,1,4,2,4,1,2,0,1,0
1,0,6,0.55175,7.0104,9.2968,398,0.389,1,1,6,1,1,0,6,2,1,4,4,2,6,6.4769,16.873,12.147,8.9939,7.9889,6.9625,4,4,4,4,5,5,0,1,1
1,1,2,8.9939,6.9625,16.873,399,0.32,0,0,2,1,1,1,6,6,1,5,4,5,6,9.2968,10.592,0.55175,10.839,7.0104,11.423,4,5,4,5,2,5,0,1,0
1,0,6,10.839,11.423,10.592,400,0.316,1,1,6,1,0,1,2,6,1,5,5,5,2,16.873,10.606,8.9939,1.1892,6.9625,1.6825,5,5,4,2,5,2,0,1,1
1,0,6,1.1892,1.6825,10.606,401,0.47,0,1,6,-1,1,1,6,6,1,5,2,2,6,10.592,-22.523,10.839,18.851,11.423,5.0121,5,5,5,4,5,5,0,1,0
1,0,6,18.851,5.0121,-22.523,402,0.316,0,1,6,-1,1,1,6,6,1,1,4,5,6,10.606,4.8743,1.1892,2.7623,1.6825,0.82415,5,1,2,2,2,3,0,1,0
1,0,6,2.7623,0.82415,4.8743,403,0.312,1,1,6,1,1,1,6,6,1,4,2,3,6,-22.523,3.4227,18.851,20.243,5.0121,14.755,1,4,4,5,5,5,0,1,1
1,0,6,20.243,14.755,3.4227,404,0.344,0,1,6,-1,1,1,6,6,1,3,5,5,6,4.8743,-7.5814,2.7623,15.608,0.82415,12.755,4,3,2,5,3,5,0,1,0
1,0,6,15.608,12.755,-7.5814,405,0.311,0,1,6,-1,1,1,6,6,1,1,5,5,6,3.4227,-7.7059,20.243,8.5746,14.755,9.0001,3,1,5,5,5,4,0,1,0
1,0,6,8.5746,9.0001,-7.7059,406,0.336,0,1,6,-1,1,1,6,6,1,1,5,4,6,-7.5814,7.8503,15.608,-2.0748,12.755,2.2178,1,1,5,3,5,2,0,1,0
1,0,6,-2.0748,2.2178,7.8503,407,0.368,1,1,6,1,1,0,6,1,1,4,3,2,6,-7.7059,10.432,8.5746,2.4103,9.0001,0.25389,1,4,5,2,4,3,0,1,1
1,1,1,2.4103,0.25389,10.432,408,0.401,0,0,1,1,1,1,6,6,1,5,2,3,6,7.8503,-3.2209,-2.0748,11.215,2.2178,12.013,4,5,3,5,2,5,0,1,0
1,0,6,11.215,12.013,-3.2209,409,0.316,1,1,6,1,0,0,1,6,1,2,5,5,1,10.432,-0.043729,2.4103,-3.6458,0.25389,1.1342,5,2,2,2,3,1,0,1,1
1,1,6,-3.6458,1.1342,-0.043729,410,0.348,0,0,6,1,1,1,6,6,1,3,2,1,6,-3.2209,-5.45,11.215,1.3316,12.013,-2.0331,2,3,5,1,5,2,0,1,0
1,0,6,1.3316,-2.0331,-5.45,411,0.54,1,1,6,1,0,1,6,6,1,2,1,2,6,-0.043729,1.8597,-3.6458,0.16304,1.1342,0.55708,3,2,2,2,1,2,0,1,1
1,0,6,0.16304,0.55708,1.8597,412,0.413,1,1,6,1,1,1,6,5,1,3,2,2,6,-5.45,-1.9808,1.3316,1.7324,-2.0331,8.8185,2,3,1,5,2,2,0,1,1
1,0,5,1.7324,8.8185,-1.9808,413,0.315,0,1,5,-1,1,1,6,6,1,2,5,2,6,1.8597,-2.9702,0.16304,3.6457,0.55708,6.2018,3,2,2,4,2,3,0,1,0
1,0,6,3.6457,6.2018,-2.9702,414,0.368,1,1,6,1,1,0,5,2,1,2,4,3,5,-1.9808,-7.683,1.7324,-12.809,8.8185,-6.0043,2,2,5,1,2,1,0,1,1
1,1,2,-12.809,-6.0043,-7.683,415,0.295,1,0,2,-1,1,1,6,5,1,1,1,1,6,-2.9702,-5.7595,3.6457,4.2095,6.2018,2.0021,2,1,4,3,3,3,0,1,1
1,0,5,4.2095,2.0021,-5.7595,416,0.411,0,1,5,-1,0,1,2,4,1,2,3,3,2,-7.683,16.4,-12.809,2.6695,-6.0043,11.103,1,2,1,5,1,3,0,1,0
1,0,4,2.6695,11.103,16.4,417,0.328,1,1,4,1,1,1,5,5,1,5,5,3,5,-5.7595,-21.807,4.2095,-2.8867,2.0021,-2.3462,2,5,3,1,3,1,0,1,1
1,0,5,-2.8867,-2.3462,-21.807,418,0.442,1,1,5,1,1,1,4,6,1,1,1,1,4,16.4,-7.5362,2.6695,9.3831,11.103,4.6727,5,1,5,3,3,5,0,1,1
1,0,6,9.3831,4.6727,-7.5362,419,0.372,1,1,6,1,1,0,5,4,1,1,3,5,5,-21.807,9.9807,-2.8867,4.9114,-2.3462,4.5151,1,1,1,3,1,3,0,1,1
1,1,4,4.9114,4.5151,9.9807,420,0.364,1,0,4,-1,1,1,6,4,1,4,3,3,6,-7.5362,13.919,9.3831,5.388,4.6727,9.4053,1,4,3,5,5,4,0,1,1
1,0,4,5.388,9.4053,13.919,421,0.308,1,1,4,1,0,1,4,4,1,5,5,4,4,9.9807,-3.9596,4.9114,6.946,4.5151,1.4567,4,5,3,2,3,4,0,1,1
1,0,4,6.946,1.4567,-3.9596,422,0.311,1,1,4,1,1,1,4,4,1,2,2,4,4,13.919,-19.34,5.388,10.554,9.4053,2.4523,5,2,5,3,4,5,0,1,1
1,0,4,10.554,2.4523,-19.34,423,0.401,1,1,4,1,1,0,4,3,1,1,3,5,4,-3.9596,10.844,6.946,-7.0915,1.4567,-8.4085,2,1,2,1,4,1,0,1,1
1,1,3,-7.0915,-8.4085,10.844,424,0.397,1,0,3,-1,1,1,4,3,1,5,1,1,4,-19.34,0.58235,10.554,12.615,2.4523,4.3027,1,5,3,3,5,5,0,1,1
1,0,3,12.615,4.3027,0.58235,425,0.393,1,1,3,1,0,1,3,4,1,3,3,5,3,10.844,6.1125,-7.0915,2.2183,-8.4085,4.2221,5,3,1,3,1,3,0,1,1
1,0,4,2.2183,4.2221,6.1125,426,0.478,0,1,4,-1,1,1,3,5,1,4,3,3,3,0.58235,5.6712,12.615,-1.9495,4.3027,-1.7801,3,4,3,1,5,2,0,1,0
1,0,5,-1.9495,-1.7801,5.6712,427,0.421,0,1,5,-1,1,1,4,5,1,4,1,2,4,6.1125,-20.313,2.2183,0.56648,4.2221,0.88126,4,4,3,2,3,2,0,1,0
1,0,5,0.56648,0.88126,-20.313,428,0.332,1,1,5,1,1,1,5,6,1,1,2,2,5,5.6712,-18.225,-1.9495,-3.8364,-1.7801,-1.3763,4,1,1,1,2,1,0,1,1
1,0,6,-3.8364,-1.3763,-18.225,429,0.442,0,1,6,-1,1,1,5,6,1,1,1,1,5,-20.313,-10.786,0.56648,11.83,0.88126,4.6935,1,1,2,4,2,5,0,1,0
1,0,6,11.83,4.6935,-10.786,430,0.385,1,1,6,1,1,1,6,6,1,1,4,5,6,-18.225,13.243,-3.8364,12.41,-1.3763,10.278,1,1,1,5,1,5,0,1,1
1,0,6,12.41,10.278,13.243,431,0.33,1,1,6,1,1,1,6,6,1,5,5,5,6,-10.786,-1.2145,11.83,-1.4458,4.6935,1.7648,1,5,4,2,5,2,0,1,1
1,0,6,-1.4458,1.7648,-1.2145,432,0.352,1,1,6,1,1,1,6,6,1,3,2,2,6,13.243,-9.9205,12.41,-6.5777,10.278,-7.7758,5,3,5,1,5,1,0,1,1
1,0,6,-6.5777,-7.7758,-9.9205,433,0.434,0,1,6,-1,1,0,6,3,1,1,1,1,6,-1.2145,-8.8295,-1.4458,3.0349,1.7648,-1.4013,3,1,2,1,2,3,0,1,0
1,1,3,3.0349,-1.4013,-8.8295,434,0.393,1,0,3,-1,1,1,6,6,1,1,1,3,6,-9.9205,-13.568,-6.5777,3.1736,-7.7758,-0.39803,1,1,1,2,1,3,0,1,1
1,0,6,3.1736,-0.39803,-13.568,435,0.491,0,1,6,-1,0,1,3,6,1,1,2,3,3,-8.8295,0.16051,3.0349,7.3946,-1.4013,4.11,1,1,1,3,3,4,0,1,0
1,0,6,7.3946,4.11,0.16051,436,0.409,1,1,6,1,1,1,6,5,1,3,3,4,6,-13.568,-1.2189,3.1736,6.2486,-0.39803,4.4078,1,3,2,3,3,4,0,1,1
1,0,5,6.2486,4.4078,-1.2189,437,0.352,0,1,5,-1,1,1,6,6,1,3,3,4,6,0.16051,4.967,7.3946,7.2177,4.11,8.7166,3,3,3,5,4,4,0,1,0
1,0,6,7.2177,8.7166,4.967,438,0.344,0,1,6,-1,1,1,5,3,1,4,5,4,5,-1.2189,-2.6627,6.2486,3.6295,4.4078,3.4762,3,4,3,3,4,3,0,1,0
1,0,3,3.6295,3.4762,-2.6627,439,0.556,1,1,3,1,1,1,6,6,1,2,3,3,6,4.967,-5.7081,7.2177,13.369,8.7166,12.495,4,2,5,5,4,5,0,1,1
1,0,6,13.369,12.495,-5.7081,440,0.34,1,1,6,1,1,1,3,5,1,2,5,5,3,-2.6627,9.3912,3.6295,7.0752,3.4762,6.3736,2,2,3,4,3,4,0,1,1
1,0,5,7.0752,6.3736,9.3912,441,0.377,0,1,5,-1,1,1,6,6,1,4,4,4,6,-5.7081,-12.586,13.369,6.0122,12.495,0.0078931,2,4,5,2,5,4,0,1,0
1,0,6,6.0122,0.0078931,-12.586,442,0.353,0,1,6,-1,1,1,5,6,1,1,2,4,5,9.3912,1.6846,7.0752,6.1514,6.3736,0.61984,4,1,4,2,4,4,0,1,0
1,0,6,6.1514,0.61984,1.6846,443,0.324,0,1,6,-1,1,1,6,4,1,3,2,4,6,-12.586,-3.9944,6.0122,6.311,0.0078931,7.5215,1,3,2,4,4,4,0,1,0
1,0,4,6.311,7.5215,-3.9944,444,0.36,0,1,4,-1,1,0,6,3,1,2,4,4,6,1.6846,11.622,6.1514,1.5625,0.61984,0.19613,3,2,2,2,4,2,0,1,0
1,1,3,1.5625,0.19613,11.622,445,0.519,0,0,3,1,1,1,4,6,1,5,2,2,4,-3.9944,5.0245,6.311,9.8207,7.5215,4.988,2,5,4,4,4,5,0,1,0
1,0,6,9.8207,4.988,5.0245,446,0.364,0,1,6,-1,0,0,3,4,1,4,4,5,3,11.622,-14.964,1.5625,-27.764,0.19613,-31.131,5,4,2,1,2,1,0,1,0
1,1,4,-27.764,-31.131,-14.964,447,0.446,0,0,4,1,1,1,6,6,1,1,1,1,6,5.0245,-9.1076,9.8207,23.556,4.988,14.235,4,1,4,5,5,5,0,1,0
1,0,6,23.556,14.235,-9.1076,448,0.332,0,1,6,-1,0,1,4,6,1,1,5,5,4,-14.964,12.107,-27.764,-7.5348,-31.131,-1.2967,1,1,1,1,1,1,0,1,0
1,0,6,-7.5348,-1.2967,12.107,449,0.356,0,1,6,-1,1,1,6,5,1,5,1,1,6,-9.1076,-8.8326,23.556,4.6962,14.235,0.062701,1,5,5,2,5,3,0,1,0
1,0,5,4.6962,0.062701,-8.8326,450,0.446,1,1,5,1,1,0,6,4,1,1,2,3,6,12.107,-6.4996,-7.5348,-7.1073,-1.2967,-2.7573,5,1,1,1,1,1,0,1,1
1,1,4,-7.1073,-2.7573,-6.4996,451,0.466,0,0,4,1,1,1,5,5,1,2,1,1,5,-8.8326,-2.7289,4.6962,-11.765,0.062701,-0.21564,1,2,2,2,3,1,0,1,0
1,0,5,-11.765,-0.21564,-2.7289,452,0.609,1,1,5,1,0,1,4,5,1,2,2,1,4,-6.4996,-6.7917,-7.1073,6.8856,-2.7573,1.5891,2,2,1,2,1,4,0,1,1
1,0,5,6.8856,1.5891,-6.7917,453,0.613,1,1,5,1,1,1,5,6,1,2,2,4,5,-2.7289,5.1559,-11.765,2.2203,-0.21564,4.4147,2,2,2,3,1,3,0,1,1
1,0,6,2.2203,4.4147,5.1559,454,0.409,0,1,6,-1,1,1,5,6,1,4,3,3,5,-6.7917,-2.6128,6.8856,7.5203,1.5891,1.7951,2,4,2,2,4,4,0,1,0
1,0,6,7.5203,1.7951,-2.6128,455,0.409,1,1,6,1,1,1,6,4,1,2,2,4,6,5.1559,3.0521,2.2203,-2.9842,4.4147,-4.9276,4,2,3,1,3,1,0,1,1
1,0,4,-2.9842,-4.9276,3.0521,456,0.495,0,1,4,-1,1,1,6,5,1,3,1,1,6,-2.6128,9.6123,7.5203,9.0457,1.7951,6.7674,2,3,2,4,4,5,0,1,0
1,0,5,9.0457,6.7674,9.6123,457,0.385,0,1,5,-1,1,1,4,6,1,4,4,5,4,3.0521,-5.5715,-2.9842,-1.6102,-4.9276,-0.25096,3,4,1,2,1,2,0,1,0
1,0,6,-1.6102,-0.25096,-5.5715,458,0.413,0,1,6,-1,1,1,5,5,1,2,2,2,5,9.6123,21.277,9.0457,10.576,6.7674,14.365,4,2,4,5,5,5,0,1,0
1,0,5,10.576,14.365,21.277,459,0.344,0,1,5,-1,1,0,6,2,1,5,5,5,6,-5.5715,6.0177,-1.6102,-5.3416,-0.25096,-0.52641,2,5,2,2,2,1,0,1,0
1,1,2,-5.3416,-0.52641,6.0177,460,0.368,0,0,2,1,1,1,5,5,1,4,2,1,5,21.277,-8.9233,10.576,-1.8973,14.365,-0.60588,5,4,5,2,5,2,0,1,0
1,0,5,-1.8973,-0.60588,-8.9233,461,0.336,1,1,5,1,0,0,2,4,1,1,2,2,2,6.0177,4.6879,-5.3416,2.5674,-0.52641,2.2259,4,1,2,3,1,3,0,1,1
1,1,4,2.5674,2.2259,4.6879,462,0.588,0,0,4,1,1,1,5,4,1,4,3,3,5,-8.9233,4.4591,-1.8973,8.9341,-0.60588,4.3939,1,4,2,3,2,4,0,1,0
1,0,4,8.9341,4.3939,4.4591,463,0.507,0,1,4,-1,0,1,4,6,1,4,3,4,4,4.6879,12.132,2.5674,5.6035,2.2259,5.1799,4,4,3,4,3,4,0,1,0
1,0,6,5.6035,5.1799,12.132,464,0.385,1,1,6,1,1,1,4,6,1,5,4,4,4,4.4591,29.513,8.9341,8.3557,4.3939,17.223,4,5,3,5,4,4,0,1,1
1,0,6,8.3557,17.223,29.513,465,0.401,0,1,6,-1,1,1,6,6,1,5,5,4,6,12.132,-18.77,5.6035,4.2612,5.1799,7.1081,5,5,4,4,4,3,0,1,0
1,0,6,4.2612,7.1081,-18.77,466,0.36,0,1,6,-1,1,1,6,6,1,1,4,3,6,29.513,-24.646,8.3557,-1.2998,17.223,0.38178,5,1,5,2,4,2,0,1,0
1,0,6,-1.2998,0.38178,-24.646,467,0.401,1,1,6,1,1,0,6,1,1,1,2,2,6,-18.77,3.713,4.2612,3.9473,7.1081,8.1961,1,1,4,5,3,3,0,1,1
1,1,1,3.9473,8.1961,3.713,468,0.332,1,0,1,-1,1,1,6,6,1,3,5,3,6,-24.646,30.203,-1.2998,10.188,0.38178,15.803,1,3,2,5,2,5,0,1,1
1,0,6,10.188,15.803,30.203,469,0.349,0,1,6,-1,0,1,1,6,1,5,5,5,1,3.713,7.076,3.9473,4.2441,8.1961,6.1741,3,5,5,4,3,3,0,1,0
1,0,6,4.2441,6.1741,7.076,470,0.364,0,1,6,-1,1,1,6,6,1,4,4,3,6,30.203,-7.7902,10.188,-6.2478,15.803,-7.1441,5,4,5,1,5,1,0,1,0
1,0,6,-6.2478,-7.1441,-7.7902,471,0.482,1,1,6,1,1,1,6,6,1,1,1,1,6,7.076,-6.9309,4.2441,-0.063774,6.1741,-2.7731,4,1,4,1,3,2,0,1,1
1,0,6,-0.063774,-2.7731,-6.9309,472,0.409,1,1,6,1,1,1,6,6,1,2,1,2,6,-7.7902,-5.1423,-6.2478,9.5232,-7.1441,5.7999,1,2,1,4,1,5,0,1,1
1,0,6,9.5232,5.7999,-5.1423,473,0.381,0,1,6,-1,1,1,6,6,1,2,4,5,6,-6.9309,-3.4226,-0.063774,1.5025,-2.7731,2.7021,2,2,1,3,2,2,0,1,0
1,0,6,1.5025,2.7021,-3.4226,474,0.413,1,1,6,1,1,1,6,6,1,2,3,2,6,-5.1423,-25.933,9.5232,1.8529,5.7999,-0.56143,2,2,4,2,5,3,0,1,1
1,0,6,1.8529,-0.56143,-25.933,475,0.39,1,1,6,1,1,1,6,6,1,1,2,3,6,-3.4226,0.1864,1.5025,7.8182,2.7021,4.175,2,1,3,3,2,4,0,1,1
1,0,6,7.8182,4.175,0.1864,476,0.364,1,1,6,1,1,1,6,5,1,3,3,4,6,-25.933,-2.1869,1.8529,3.8636,-0.56143,6.1042,1,3,2,4,3,3,0,1,1
1,0,5,3.8636,6.1042,-2.1869,477,0.405,1,1,5,1,1,1,6,6,1,2,4,3,6,0.1864,1.3999,7.8182,0.3557,4.175,3.2141,3,2,3,3,4,2,0,1,1
1,0,6,0.3557,3.2141,1.3999,478,0.398,0,1,6,-1,1,1,5,6,1,3,3,2,5,-2.1869,1.0711,3.8636,-5.3603,6.1042,-2.2765,2,3,4,1,3,1,0,1,0
1,0,6,-5.3603,-2.2765,1.0711,479,0.377,1,1,6,1,1,1,6,6,1,3,1,1,6,1.3999,-9.5753,0.3557,-0.45395,3.2141,-1.0691,3,3,3,2,2,2,0,1,1
1,0,6,-0.45395,-1.0691,-9.5753,480,0.491,1,1,6,1,1,0,6,1,1,1,2,2,6,1.0711,-6.0054,-5.3603,2.6839,-2.2765,0.054483,3,1,1,2,1,3,0,1,1
1,1,1,2.6839,0.054483,-6.0054,481,0.369,0,0,1,1,1,1,6,6,1,2,2,3,6,-9.5753,-1.2364,-0.45395,12.221,-1.0691,8.6874,1,2,2,5,2,5,0,1,0
1,0,6,12.221,8.6874,-1.2364,482,0.474,1,1,6,1,0,1,1,6,1,3,5,5,1,-6.0054,3.1407,2.6839,2.7064,0.054483,6.8799,2,3,2,4,3,3,0,1,1
1,0,6,2.7064,6.8799,3.1407,483,0.36,0,1,6,-1,1,1,6,6,1,3,4,3,6,-1.2364,-7.4227,12.221,7.1042,8.6874,5.9606,3,3,5,4,5,4,0,1,0
1,0,6,7.1042,5.9606,-7.4227,484,0.324,1,1,6,1,1,1,6,6,1,1,4,4,6,3.1407,-0.22359,2.7064,9.3302,6.8799,6.0467,3,1,4,4,3,5,0,1,1
1,0,6,9.3302,6.0467,-0.22359,485,0.369,1,1,6,1,1,0,6,2,1,3,4,5,6,-7.4227,11.306,7.1042,9.7234,5.9606,8.6768,1,3,4,5,4,5,0,1,1
1,1,2,9.7234,8.6768,11.306,486,0.332,1,0,2,-1,1,1,6,5,1,5,5,5,6,-0.22359,-2.825,9.3302,-0.17181,6.0467,3.3229,3,5,4,3,5,2,0,1,1
1,0,5,-0.17181,3.3229,-2.825,487,0.336,0,1,5,-1,0,1,2,5,1,2,3,2,2,11.306,-0.58334,9.7234,7.5914,8.6768,2.3905,5,2,5,3,5,4,0,1,0
1,0,5,7.5914,2.3905,-0.58334,488,0.413,0,1,5,-1,1,0,5,3,1,3,3,4,5,-2.825,-15.63,-0.17181,1.0298,3.3229,2.8734,2,3,3,3,2,2,0,1,0
1,1,3,1.0298,2.8734,-15.63,489,0.36,1,0,3,-1,1,1,5,4,1,1,3,2,5,-0.58334,-14.564,7.5914,-9.1656,2.3905,-2.201,3,1,3,1,4,1,0,1,1
1,0,4,-9.1656,-2.201,-14.564,490,0.434,1,1,4,1,0,1,3,5,1,1,1,1,3,-15.63,6.8682,1.0298,-1.5487,2.8734,0.82894,1,1,3,2,2,2,0,1,1
1,0,5,-1.5487,0.82894,6.8682,491,0.356,1,1,5,1,1,1,4,6,1,4,2,2,4,-14.564,7.5733,-9.1656,11.919,-2.201,9.9287,1,4,1,5,1,5,0,1,1
1,0,6,11.919,9.9287,7.5733,492,0.36,0,1,6,-1,1,1,5,6,1,4,5,5,5,6.8682,0.33301,-1.5487,9.7302,0.82894,13.549,4,4,2,5,2,5,0,1,0
1,0,6,9.7302,13.549,0.33301,493,0.332,0,1,6,-1,1,1,6,6,1,3,5,5,6,7.5733,-4.8105,11.919,7.7749,9.9287,9.2264,4,3,5,5,5,4,0,1,0
1,0,6,7.7749,9.2264,-4.8105,494,0.348,1,1,6,1,1,1,6,6,1,2,5,4,6,0.33301,20.216,9.7302,13.573,13.549,7.3583,3,2,5,4,5,5,0,1,1
1,0,6,13.573,7.3583,20.216,495,0.307,0,1,6,-1,1,1,6,6,1,5,4,5,6,-4.8105,2.2287,7.7749,0.41958,9.2264,-0.17937,2,5,5,2,4,2,0,1,0
1,0,6,0.41958,-0.17937,2.2287,496,0.397,1,1,6,1,1,0,6,2,1,3,2,2,6,20.216,2.1221,13.573,3.2021,7.3583,1.0885,5,3,4,2,5,3,0,1,1
1,1,2,3.2021,1.0885,2.1221,497,0.287,0,0,2,1,1,0,6,4,1,3,2,3,6,2.2287,6.4309,0.41958,3.5978,-0.17937,1.0742,3,3,2,2,2,3,0,1,0
1,1,4,3.5978,1.0742,6.4309,498,0.332,1,0,4,-1,0,1,2,6,1,4,2,3,2,2.1221,13.864,3.2021,2.7275,1.0885,10.37,3,4,2,5,3,3,0,1,1
1,0,6,2.7275,10.37,13.864,499,0.291,0,1,6,-1,0,1,4,6,1,5,5,3,4,6.4309,-14.308,3.5978,-9.7268,1.0742,1.7126,4,5,2,2,3,1,0,1,0
1,0,6,-9.7268,1.7126,-14.308,500,0.385,1,1,6,1,1,0,6,4,1,1,2,1,6,13.864,12.613,2.7275,2.8069,10.37,4.9998,5,1,5,4,3,3,0,1,1
1,1,4,2.8069,4.9998,12.613,501,0.299,0,0,4,1,1,1,6,5,1,5,4,3,6,-14.308,0.83966,-9.7268,-1.2456,1.7126,-3.0173,1,5,2,1,1,2,0,1,0
1,0,5,-1.2456,-3.0173,0.83966,502,0.474,0,1,5,-1,0,1,4,5,1,3,1,2,4,12.613,-3.3072,2.8069,3.9896,4.9998,1.3165,5,3,4,2,3,3,0,1,0
1,0,5,3.9896,1.3165,-3.3072,503,0.332,1,1,5,1,1,1,5,6,1,2,2,3,5,0.83966,12.171,-1.2456,7.6746,-3.0173,1.7862,3,2,1,2,2,4,0,1,1
1,0,6,7.6746,1.7862,12.171,504,0.328,0,1,6,-1,1,0,5,3,1,5,2,4,5,-3.3072,28.605,3.9896,10.664,1.3165,9.1775,2,5,2,5,3,5,0,1,0
1,1,3,10.664,9.1775,28.605,505,0.316,1,0,3,-1,1,1,6,5,1,5,5,5,6,12.171,12.69,7.6746,11.232,1.7862,10.346,5,5,2,5,4,5,0,1,1
1,0,5,11.232,10.346,12.69,506,0.34,1,1,5,1,0,1,3,6,1,5,5,5,3,28.605,-15.133,10.664,7.0401,9.1775,5.7738,5,5,5,4,5,4,0,1,1
1,0,6,7.0401,5.7738,-15.133,507,0.361,0,1,6,-1,1,1,5,4,1,1,4,4,5,12.69,-0.72551,11.232,1.5169,10.346,-5.0594,5,1,5,1,5,2,0,1,0
1,0,4,1.5169,-5.0594,-0.72551,508,0.458,1,1,4,1,1,1,6,6,1,3,1,2,6,-15.133,11.982,7.0401,5.9859,5.7738,5.0724,1,3,4,4,4,4,0,1,1
1,0,6,5.9859,5.0724,11.982,509,0.291,0,1,6,-1,1,1,4,4,1,5,4,4,4,-0.72551,-0.72997,1.5169,10.606,-5.0594,4.2574,3,5,1,3,2,5,0,1,0
1,0,4,10.606,4.2574,-0.72997,510,0.348,1,1,4,1,1,1,6,6,1,3,3,5,6,11.982,3.9026,5.9859,2.064,5.0724,1.9724,5,3,4,3,4,3,0,1,1
1,0,6,2.064,1.9724,3.9026,511,0.389,0,1,6,-1,1,1,4,6,1,3,3,3,4,-0.72997,3.4294,10.606,12.05,4.2574,10.871,3,3,3,5,5,5,0,1,0
1,0,6,12.05,10.871,3.4294,512,0.352,0,1,6,-1,1,1,6,6,1,3,5,5,6,3.9026,22.69,2.064,16.019,1.9724,23.699,3,3,3,5,3,5,0,1,0
1,0,6,16.019,23.699,22.69,513,0.291,0,1,6,-1,1,1,6,6,1,5,5,5,6,3.4294,-38.104,12.05,-10.209,10.871,-9.2182,3,5,5,1,5,1,0,1,0
1,0,6,-10.209,-9.2182,-38.104,514,0.49,1,1,6,1,1,1,6,6,1,1,1,1,6,22.69,7.0972,16.019,1.3455,23.699,5.7518,5,1,5,4,5,2,0,1,1
1,0,6,1.3455,5.7518,7.0972,515,0.332,1,1,6,1,1,1,6,6,1,4,4,2,6,-38.104,0.39555,-10.209,-2.6786,-9.2182,-1.1205,1,4,1,2,1,1,0,1,1
1,0,6,-2.6786,-1.1205,0.39555,516,0.455,1,1,6,1,1,1,6,6,1,3,2,1,6,7.0972,5.5725,1.3455,6.9939,5.7518,7.8091,4,3,4,4,2,4,0,1,1
1,0,6,6.9939,7.8091,5.5725,517,0.36,0,1,6,-1,1,1,6,6,1,4,4,4,6,0.39555,0.90045,-2.6786,9.0202,-1.1205,3.7512,3,4,2,3,1,5,0,1,0
1,0,6,9.0202,3.7512,0.90045,518,0.316,1,1,6,1,1,1,6,4,1,3,3,5,6,5.5725,17.013,6.9939,4.7834,7.8091,11.635,4,3,4,5,4,3,0,1,1
1,0,4,4.7834,11.635,17.013,519,0.369,0,1,4,-1,1,1,6,6,1,5,5,3,6,0.90045,-5.2834,9.0202,-0.1217,3.7512,-4.1754,3,5,3,1,5,2,0,1,0
1,0,6,-0.1217,-4.1754,-5.2834,520,0.462,0,1,6,-1,1,1,4,6,1,2,1,2,4,17.013,-8.3203,4.7834,10.229,11.635,7.5652,5,2,5,4,3,5,0,1,0
1,0,6,10.229,7.5652,-8.3203,521,0.332,1,1,6,1,1,0,6,3,1,1,4,5,6,-5.2834,0.16288,-0.1217,-1.6288,-4.1754,-0.98765,2,1,1,2,2,2,0,1,1
1,1,3,-1.6288,-0.98765,0.16288,522,0.364,0,0,3,1,1,1,6,6,1,3,2,2,6,-8.3203,-16.509,10.229,8.5405,7.5652,6.5527,1,3,4,4,5,4,0,1,0
1,0,6,8.5405,6.5527,-16.509,523,0.491,1,1,6,1,0,1,3,6,1,1,4,4,3,0.16288,-0.9298,-1.6288,2.9893,-0.98765,2.6429,3,1,2,3,2,3,0,1,1
1,0,6,2.9893,2.6429,-0.9298,524,0.332,0,1,6,-1,1,1,6,6,1,3,3,3,6,-16.509,8.8307,8.5405,11.179,6.5527,9.0961,1,3,4,5,4,5,0,1,0
1,0,6,11.179,9.0961,8.8307,525,0.291,0,1,6,-1,1,1,6,5,1,4,5,5,6,-0.9298,-3.7814,2.9893,7.5069,2.6429,9.6803,3,4,3,5,3,4,0,1,0
1,0,5,7.5069,9.6803,-3.7814,526,0.344,1,1,5,1,1,0,6,6,1,2,5,4,6,8.8307,12.921,11.179,7.5194,9.0961,9.7911,4,2,5,5,5,4,0,1,1
1,1,6,7.5194,9.7911,12.921,527,0.348,0,0,6,1,1,1,5,6,1,5,5,4,5,-3.7814,-9.1694,7.5069,-0.25223,9.6803,-3.0706,2,5,5,1,4,2,0,1,0
1,0,6,-0.25223,-3.0706,-9.1694,528,0.462,1,1,6,1,0,1,6,4,1,1,1,2,6,12.921,6.5991,7.5194,-2.8954,9.7911,-4.8407,5,1,5,1,4,1,0,1,1
1,0,4,-2.8954,-4.8407,6.5991,529,0.54,0,1,4,-1,1,0,6,4,1,4,1,1,6,-9.1694,-5.1958,-0.25223,2.5704,-3.0706,-0.36799,1,4,1,2,2,3,0,1,0
1,1,4,2.5704,-0.36799,-5.1958,530,0.381,1,0,4,-1,1,1,4,5,1,2,2,3,4,6.5991,5.1593,-2.8954,9.8482,-4.8407,7.5049,4,2,1,4,1,5,0,1,1
1,0,5,9.8482,7.5049,5.1593,531,0.377,1,1,5,1,0,1,4,4,1,4,4,5,4,-5.1958,13.333,2.5704,9.4424,-0.36799,5.7895,2,4,2,4,3,5,0,1,1
1,0,4,9.4424,5.7895,13.333,532,0.324,0,1,4,-1,1,1,5,5,1,5,4,5,5,5.1593,6.8795,9.8482,3.7407,7.5049,-1.1765,4,5,4,2,5,3,0,1,0
1,0,5,3.7407,-1.1765,6.8795,533,0.496,0,1,5,-1,1,1,4,6,1,4,2,3,4,13.333,-18.19,9.4424,6.429,5.7895,-0.68693,5,4,4,2,5,4,0,1,0
1,0,6,6.429,-0.68693,-18.19,534,0.336,1,1,6,1,1,1,5,6,1,1,2,4,5,6.8795,-11.057,3.7407,1.7046,-1.1765,4.7331,4,1,2,4,3,2,0,1,1
1,0,6,1.7046,4.7331,-11.057,535,0.368,1,1,6,1,1,1,6,6,1,1,4,2,6,-18.19,14.65,6.429,2.8709,-0.68693,5.6513,1,1,2,4,4,3,0,1,1
1,0,6,2.8709,5.6513,14.65,536,0.397,0,1,6,-1,1,0,6,1,1,5,4,3,6,-11.057,5.4776,1.7046,3.2766,4.7331,0.10805,1,5,4,2,2,3,0,1,0
1,1,1,3.2766,0.10805,5.4776,537,0.393,1,0,1,-1,1,0,6,1,1,4,2,3,6,14.65,21.358,2.8709,9.4095,5.6513,10.838,5,4,4,5,3,5,0,1,1
1,1,1,9.4095,10.838,21.358,538,0.344,1,0,1,-1,0,1,1,6,1,5,5,5,1,5.4776,4.8663,3.2766,4.485,0.10805,8.5991,4,5,2,5,3,3,0,1,1
1,0,6,4.485,8.5991,4.8663,539,0.373,1,1,6,1,0,1,1,6,1,4,5,3,1,21.358,-25.28,9.4095,-7.8829,10.838,-6.2965,5,4,5,1,5,1,0,1,1
1,0,6,-7.8829,-6.2965,-25.28,540,0.369,0,1,6,-1,1,1,6,6,1,1,1,1,6,4.8663,15.083,4.485,5.9015,8.5991,5.5543,4,1,5,4,3,4,0,1,0
1,0,6,5.9015,5.5543,15.083,541,0.36,0,1,6,-1,1,1,6,6,1,5,4,4,6,-25.28,-10.538,-7.8829,6.6899,-6.2965,0.9031,1,5,1,2,1,4,0,1,0
1,0,6,6.6899,0.9031,-10.538,542,0.397,1,1,6,1,1,1,6,5,1,1,2,4,6,15.083,-10.682,5.9015,16.11,5.5543,9.8675,5,1,4,5,4,5,0,1,1
1,0,5,16.11,9.8675,-10.682,543,0.332,1,1,5,1,1,1,6,5,1,1,5,5,6,-10.538,14.023,6.6899,2.0641,0.9031,9.3356,1,1,2,5,4,3,0,1,1
1,0,5,2.0641,9.3356,14.023,544,0.405,0,1,5,-1,1,1,5,5,1,5,5,3,5,-10.682,1.0347,16.11,4.478,9.8675,7.6713,1,5,5,4,5,3,0,1,0
1,0,5,4.478,7.6713,1.0347,545,0.401,1,1,5,1,1,1,5,6,1,3,4,3,5,14.023,-15.401,2.0641,15.996,9.3356,12.434,5,3,5,5,3,5,0,1,1
1,0,6,15.996,12.434,-15.401,546,0.348,0,1,6,-1,1,1,5,6,1,1,5,5,5,1.0347,24.628,4.478,7.3852,7.6713,10.018,3,1,4,5,3,4,0,1,0
1,0,6,7.3852,10.018,24.628,547,0.352,1,1,6,1,1,1,6,6,1,5,5,4,6,-15.401,-2.2038,15.996,3.3729,12.434,-4.1965,1,5,5,1,5,3,0,1,1
1,0,6,3.3729,-4.1965,-2.2038,548,0.278,1,1,6,1,1,0,6,4,1,2,1,3,6,24.628,4.3427,7.3852,9.4646,10.018,6.9957,5,2,5,4,4,5,0,1,1
1,1,4,9.4646,6.9957,4.3427,549,0.332,1,0,4,-1,1,1,6,5,1,4,4,5,6,-2.2038,6.5721,3.3729,-0.37008,-4.1965,1.7889,2,4,1,2,3,2,0,1,1
1,0,5,-0.37008,1.7889,6.5721,550,0.45,1,1,5,1,0,1,4,5,1,4,2,2,4,4.3427,4.1325,9.4646,1.1407,6.9957,3.114,4,4,4,3,5,2,0,1,1
1,0,5,1.1407,3.114,4.1325,551,0.344,0,1,5,-1,1,0,5,3,1,4,3,2,5,6.5721,1.5275,-0.37008,2.4195,1.7889,-0.49186,4,4,2,2,2,3,0,1,0
1,1,3,2.4195,-0.49186,1.5275,552,0.458,1,0,3,-1,1,1,5,5,1,3,2,3,5,4.1325,-13.194,1.1407,1.5117,3.114,2.6994,4,3,3,3,2,2,0,1,1
1,0,5,1.5117,2.6994,-13.194,553,0.474,1,1,5,1,0,1,3,6,1,1,3,2,3,1.5275,0.73872,2.4195,4.9292,-0.49186,7.4781,3,1,2,4,3,4,0,1,1
1,0,6,4.9292,7.4781,0.73872,554,0.349,1,1,6,1,1,1,5,6,1,3,4,4,5,-13.194,0.11658,1.5117,4.4542,2.6994,2.9717,1,3,3,3,2,3,0,1,1
1,0,6,4.4542,2.9717,0.11658,555,0.348,0,1,6,-1,1,1,6,6,1,3,3,3,6,0.73872,-0.42766,4.9292,3.2505,7.4781,9.6492,3,3,4,5,4,3,0,1,0
1,0,6,3.2505,9.6492,-0.42766,556,0.428,0,1,6,-1,1,1,6,5,1,3,5,3,6,0.11658,5.5224,4.4542,8.3191,2.9717,11.571,3,3,3,5,3,4,0,1,0
1,0,5,8.3191,11.571,5.5224,557,0.34,1,1,5,1,1,1,6,6,1,4,5,4,6,-0.42766,-1.854,3.2505,12.343,9.6492,10.949,3,4,5,5,3,5,0,1,1
1,0,6,12.343,10.949,-1.854,558,0.368,0,1,6,-1,1,1,5,6,1,2,5,5,5,5.5224,-19.963,8.3191,2.1437,11.571,3.4624,4,2,5,3,4,3,0,1,0
1,0,6,2.1437,3.4624,-19.963,559,0.44,1,1,6,1,1,1,6,6,1,1,3,3,6,-1.854,9.4651,12.343,5.1967,10.949,3.4453,2,1,5,3,5,4,0,1,1
1,0,6,5.1967,3.4453,9.4651,560,0.421,1,1,6,1,1,1,6,6,1,4,3,4,6,-19.963,-3.6527,2.1437,6.8868,3.4624,1.8578,1,4,3,3,3,4,0,1,1
1,0,6,6.8868,1.8578,-3.6527,561,0.291,0,1,6,-1,1,1,6,6,1,2,3,4,6,9.4651,8.5544,5.1967,-0.42387,3.4453,1.9266,4,2,3,3,4,2,0,1,0
1,0,6,-0.42387,1.9266,8.5544,562,0.311,0,1,6,-1,1,1,6,6,1,4,3,2,6,-3.6527,-13.621,6.8868,13.36,1.8578,15.16,2,4,3,5,4,5,0,1,0
1,0,6,13.36,15.16,-13.621,563,0.352,1,1,6,1,1,1,6,6,1,1,5,5,6,8.5544,5.6071,-0.42387,6.3795,1.9266,6.1961,4,1,3,4,2,4,0,1,1
1,0,6,6.3795,6.1961,5.6071,564,0.332,0,1,6,-1,1,1,6,6,1,4,4,4,6,-13.621,-1.6496,13.36,15.178,15.16,12.92,1,4,5,5,5,5,0,1,0
1,0,6,15.178,12.92,-1.6496,565,0.344,0,1,6,-1,1,1,6,6,1,2,5,5,6,5.6071,4.9348,6.3795,7.3008,6.1961,4.8065,4,2,4,4,4,4,0,1,0
1,0,6,7.3008,4.8065,4.9348,566,0.324,0,1,6,-1,1,1,6,6,1,4,4,4,6,-1.6496,28.428,15.178,13.878,12.92,16.36,2,4,5,5,5,5,0,1,0
1,0,6,13.878,16.36,28.428,567,0.352,1,1,6,1,1,1,6,6,1,5,5,5,6,4.9348,-1.8394,7.3008,3.8091,4.8065,5.4544,4,5,4,4,4,3,0,1,1
1,0,6,3.8091,5.4544,-1.8394,568,0.364,1,1,6,1,1,1,6,6,1,2,4,3,6,28.428,0.91381,13.878,8.9609,16.36,3.4536,5,2,5,3,5,5,0,1,1
1,0,6,8.9609,3.4536,0.91381,569,0.316,1,1,6,1,1,1,6,6,1,3,3,5,6,-1.8394,9.1362,3.8091,-2.2076,5.4544,1.1778,2,3,4,2,3,1,0,1,1
1,0,6,-2.2076,1.1778,9.1362,570,0.426,0,1,6,-1,1,1,6,6,1,4,2,1,6,0.91381,10.602,8.9609,-4.399,3.4536,-3.7793,3,4,3,1,5,1,0,1,0
1,0,6,-4.399,-3.7793,10.602,571,0.401,0,1,6,-1,1,1,6,6,1,5,1,1,6,9.1362,10.012,-2.2076,9.239,1.1778,10.485,4,5,2,5,1,5,0,1,0
1,0,6,9.239,10.485,10.012,572,0.328,1,1,6,1,1,0,6,1,1,5,5,5,6,10.602,17.708,-4.399,6.9772,-3.7793,7.5436,5,5,1,4,1,4,0,1,1
1,1,1,6.9772,7.5436,17.708,573,0.34,1,0,1,-1,1,0,6,4,1,5,4,4,6,10.012,-8.2735,9.239,2.0265,10.485,-3.0258,5,5,5,1,5,3,0,1,1
1,1,4,2.0265,-3.0258,-8.2735,574,0.369,1,0,4,-1,0,1,1,6,1,1,1,3,1,17.708,4.2562,6.9772,11.642,7.5436,8.5409,5,1,4,5,4,5,0,1,1
1,0,6,11.642,8.5409,4.2562,575,0.328,0,1,6,-1,0,1,4,6,1,4,5,5,4,-8.2735,-1.5077,2.0265,-0.6987,-3.0258,4.3572,1,4,1,3,3,2,0,1,0
1,0,6,-0.6987,4.3572,-1.5077,576,0.393,1,1,6,1,1,1,6,6,1,2,3,2,6,4.2562,9.8446,11.642,-2.0743,8.5409,6.2574,4,2,5,4,5,2,0,1,1
1,0,6,-2.0743,6.2574,9.8446,577,0.299,0,1,6,-1,1,1,6,6,1,4,4,2,6,-1.5077,0.36211,-0.6987,8.9782,4.3572,3.1878,2,4,3,3,2,5,0,1,0
1,0,6,8.9782,3.1878,0.36211,578,0.365,0,1,6,-1,1,1,6,6,1,3,3,5,6,9.8446,4.5476,-2.0743,3.7066,6.2574,10.496,4,3,4,5,2,3,0,1,0
1,0,6,3.7066,10.496,4.5476,579,0.352,0,1,6,-1,1,1,6,6,1,4,5,3,6,0.36211,9.1742,8.9782,4.0442,3.1878,6.8193,3,4,3,4,5,3,0,1,0
1,0,6,4.0442,6.8193,9.1742,580,0.303,1,1,6,1,1,1,6,6,1,4,4,3,6,4.5476,6.2124,3.7066,12.647,10.496,8.2475,4,4,5,5,3,5,0,1,1
1,0,6,12.647,8.2475,6.2124,581,0.365,1,1,6,1,1,1,6,6,1,4,5,5,6,9.1742,-9.3189,4.0442,10.352,6.8193,7.2237,4,4,4,4,3,5,0,1,1
1,0,6,10.352,7.2237,-9.3189,582,0.324,1,1,6,1,1,1,6,6,1,1,4,5,6,6.2124,-5.6819,12.647,1.1797,8.2475,1.4558,4,1,5,2,5,2,0,1,1
1,0,6,1.1797,1.4558,-5.6819,583,0.32,1,1,6,1,1,0,6,2,1,2,2,2,6,-9.3189,-1.9506,10.352,-0.87027,7.2237,-10.683,1,2,4,1,5,2,0,1,1
1,1,2,-0.87027,-10.683,-1.9506,584,0.356,1,0,2,-1,1,1,6,6,1,2,1,2,6,-5.6819,9.5293,1.1797,5.5857,1.4558,9.3611,2,2,2,5,2,4,0,1,1
1,0,6,5.5857,9.3611,9.5293,585,0.369,1,1,6,1,0,1,2,6,1,4,5,4,2,-1.9506,-5.4131,-0.87027,4.9063,-10.683,-0.28277,2,4,1,2,2,3,0,1,1
1,0,6,4.9063,-0.28277,-5.4131,586,0.316,1,1,6,1,1,1,6,6,1,2,2,3,6,9.5293,0.32429,5.5857,15.222,9.3611,13.432,4,2,5,5,4,5,0,1,1
1,0,6,15.222,13.432,0.32429,587,0.393,1,1,6,1,1,1,6,6,1,3,5,5,6,-5.4131,-22.826,4.9063,11.282,-0.28277,5.3042,2,3,2,4,3,5,0,1,1
1,0,6,11.282,5.3042,-22.826,588,0.368,1,1,6,1,1,1,6,6,1,1,4,5,6,0.32429,0.46688,15.222,8.6856,13.432,3.1251,3,1,5,3,5,4,0,1,1
1,0,6,8.6856,3.1251,0.46688,589,0.511,0,1,6,-1,1,1,6,6,1,3,3,4,6,-22.826,-13.018,11.282,-13.377,5.3042,-11.071,1,3,4,1,5,1,0,1,0
1,0,6,-13.377,-11.071,-13.018,590,0.413,1,1,6,1,1,1,6,6,1,1,1,1,6,0.46688,-6.117,8.6856,11.018,3.1251,2.8514,3,1,3,3,4,5,0,1,1
1,0,6,11.018,2.8514,-6.117,591,0.401,1,1,6,1,1,1,6,4,1,2,3,5,6,-13.018,3.3243,-13.377,-0.89258,-11.071,4.1543,1,2,1,3,1,2,0,1,1
1,0,4,-0.89258,4.1543,3.3243,592,0.438,0,1,4,-1,1,1,6,5,1,3,3,2,6,-6.117,6.6052,11.018,3.0796,2.8514,10.305,2,3,3,5,5,3,0,1,0
1,0,5,3.0796,10.305,6.6052,593,0.365,1,1,5,1,1,1,4,5,1,4,5,3,4,3.3243,15.925,-0.89258,2.0513,4.1543,3.9226,3,4,3,3,2,3,0,1,1
1,0,5,2.0513,3.9226,15.925,594,0.43,0,1,5,-1,1,1,5,5,1,5,3,3,5,6.6052,-7.002,3.0796,1.3303,10.305,0.85494,4,5,5,2,3,2,0,1,0
1,0,5,1.3303,0.85494,-7.002,595,0.307,1,1,5,1,1,1,5,6,1,2,2,2,5,15.925,16.008,2.0513,12.081,3.9226,13.518,5,2,3,5,3,5,0,1,1
1,0,6,12.081,13.518,16.008,596,0.417,0,1,6,-1,1,1,5,6,1,5,5,5,5,-7.002,-6.466,1.3303,-11.477,0.85494,1.7307,2,5,2,2,2,1,0,1,0
1,0,6,-11.477,1.7307,-6.466,597,0.425,1,1,6,1,1,1,6,6,1,2,2,1,6,16.008,13.128,12.081,2.083,13.518,4.8434,5,2,5,4,5,3,0,1,1
1,0,6,2.083,4.8434,13.128,598,0.393,0,1,6,-1,1,1,6,4,1,5,4,3,6,-6.466,-7.9534,-11.477,3.6343,1.7307,-2.5832,2,5,2,1,1,3,0,1,0
1,0,4,3.6343,-2.5832,-7.9534,599,0.556,0,1,4,-1,1,1,6,5,1,1,1,3,6,13.128,6.5634,2.083,-18.394,4.8434,-11.123,5,1,4,1,3,1,0,1,0
1,0,5,-18.394,-11.123,6.5634,600,0.389,0,1,5,-1,1,1,4,6,1,4,1,1,4,-7.9534,7.8909,3.6343,-0.29111,-2.5832,-0.23461,1,4,1,2,3,2,0,1,0
1,0,6,-0.29111,-0.23461,7.8909,601,0.397,1,1,6,1,1,1,5,6,1,4,2,2,5,6.5634,2.3847,-18.394,3.7653,-11.123,1.8474,4,4,1,2,1,3,0,1,1
1,0,6,3.7653,1.8474,2.3847,602,0.356,0,1,6,-1,1,1,6,6,1,3,2,3,6,7.8909,-17.24,-0.29111,0.057544,-0.23461,-2.266,4,3,2,1,2,2,0,1,0
1,0,6,0.057544,-2.266,-17.24,603,0.474,0,1,6,-1,1,0,6,4,1,1,1,2,6,2.3847,9.7458,3.7653,-7.5809,1.8474,-0.84559,3,1,2,2,3,1,0,1,0
1,1,4,-7.5809,-0.84559,9.7458,604,0.572,0,0,4,1,1,1,6,6,1,4,2,1,6,-17.24,2.6161,0.057544,7.8526,-2.266,4.6609,1,4,1,3,2,4,0,1,0
1,0,6,7.8526,4.6609,2.6161,605,0.307,0,1,6,-1,0,1,4,6,1,3,3,4,4,9.7458,6.3171,-7.5809,6.2342,-0.84559,7.6171,4,3,2,4,1,4,0,1,0
1,0,6,6.2342,7.6171,6.3171,606,0.356,0,1,6,-1,1,1,6,6,1,4,4,4,6,2.6161,-2.6232,7.8526,8.6987,4.6609,8.6583,3,4,3,5,4,4,0,1,0
1,0,6,8.6987,8.6583,-2.6232,607,0.405,0,1,6,-1,1,1,6,3,1,2,5,4,6,6.3171,10.786,6.2342,0.31757,7.6171,-2.5057,4,2,4,1,4,2,0,1,0
1,0,3,0.31757,-2.5057,10.786,608,0.592,1,1,3,1,1,1,6,6,1,5,1,2,6,-2.6232,0.3823,8.6987,-1.597,8.6583,-0.50104,2,5,5,2,4,2,0,1,1
1,0,6,-1.597,-0.50104,0.3823,609,0.427,0,1,6,-1,1,1,3,5,1,3,2,2,3,10.786,6.8917,0.31757,5.8481,-2.5057,4.1945,5,3,1,3,2,4,0,1,0
1,0,5,5.8481,4.1945,6.8917,610,0.588,1,1,5,1,1,0,6,4,1,4,3,4,6,0.3823,2.6945,-1.597,0.3009,-0.50104,-1.2229,3,4,2,2,2,2,0,1,1
1,1,4,0.3009,-1.2229,2.6945,611,0.454,0,0,4,1,1,1,5,6,1,3,2,2,5,6.8917,23.315,5.8481,2.913,4.1945,5.6523,4,3,3,4,4,3,0,1,0
1,0,6,2.913,5.6523,23.315,612,0.348,0,1,6,-1,0,1,4,6,1,5,4,3,4,2.6945,-15.761,0.3009,2.3762,-1.2229,3.1774,3,5,2,3,2,3,0,1,0
1,0,6,2.3762,3.1774,-15.761,613,0.381,0,1,6,-1,1,1,6,6,1,1,3,3,6,23.315,-36.708,2.913,0.12168,5.6523,-8.9054,5,1,4,1,3,2,0,1,0
1,0,6,0.12168,-8.9054,-36.708,614,0.389,0,1,6,-1,1,1,6,6,1,1,1,2,6,-15.761,22.203,2.3762,-1.2548,3.1774,4.4133,1,1,3,3,3,2,0,1,0
1,0,6,-1.2548,4.4133,22.203,615,0.332,1,1,6,1,1,1,6,6,1,5,3,2,6,-36.708,8.1867,0.12168,14.292,-8.9054,6.6528,1,5,1,4,2,5,0,1,1
1,0,6,14.292,6.6528,8.1867,616,0.397,0,1,6,-1,1,1,6,6,1,4,4,5,6,22.203,4.4069,-1.2548,7.1013,4.4133,1.4728,5,4,3,2,2,4,0,1,0
1,0,6,7.1013,1.4728,4.4069,617,0.541,0,1,6,-1,1,1,6,6,1,4,2,4,6,8.1867,16.001,14.292,7.2618,6.6528,15.458,4,4,4,5,5,4,0,1,0
1,0,6,7.2618,15.458,16.001,618,0.364,1,1,6,1,1,1,6,6,1,5,5,4,6,4.4069,-1.8458,7.1013,5.2699,1.4728,3.9573,4,5,2,3,4,4,0,1,1
1,0,6,5.2699,3.9573,-1.8458,619,0.377,0,1,6,-1,1,1,6,6,1,2,3,4,6,16.001,8.3618,7.2618,9.0614,15.458,3.0564,5,2,5,3,4,5,0,1,0
1,0,6,9.0614,3.0564,8.3618,620,0.32,1,1,6,1,1,0,6,2,1,4,3,5,6,-1.8458,10.648,5.2699,6.2605,3.9573,5.7595,2,4,3,4,4,4,0,1,1
1,1,2,6.2605,5.7595,10.648,621,0.291,0,0,2,1,1,1,6,6,1,5,4,4,6,8.3618,16.337,9.0614,15.108,3.0564,11.077,4,5,3,5,5,5,0,1,0
1,0,6,15.108,11.077,16.337,622,0.316,1,1,6,1,0,1,2,6,1,5,5,5,2,10.648,-3.7253,6.2605,-4.2549,5.7595,-8.2131,5,5,4,1,4,1,0,1,1
1,0,6,-4.2549,-8.2131,-3.7253,623,0.429,0,1,6,-1,1,1,6,6,1,2,1,1,6,16.337,-7.4817,15.108,3.9815,11.077,1.7564,5,2,5,2,5,3,0,1,0
1,0,6,3.9815,1.7564,-7.4817,624,0.548,0,1,6,-1,1,1,6,6,1,1,2,3,6,-3.7253,-10.868,-4.2549,2.0888,-8.2131,4.6139,2,1,1,3,1,3,0,1,0
1,0,6,2.0888,4.6139,-10.868,625,0.315,1,1,6,1,1,1,6,5,1,1,3,3,6,-7.4817,-8.3112,3.9815,-2.2072,1.7564,-2.1093,1,1,2,1,3,1,0,1,1
1,0,5,-2.2072,-2.1093,-8.3112,626,0.45,1,1,5,1,1,1,6,6,1,1,1,1,6,-10.868,1.9308,2.0888,6.3087,4.6139,4.3576,1,1,3,3,3,4,0,1,1
1,0,6,6.3087,4.3576,1.9308,627,0.466,0,1,6,-1,1,1,5,6,1,3,3,4,5,-8.3112,12.467,-2.2072,2.5086,-2.1093,-5.33,1,3,1,1,1,3,0,1,0
1,0,6,2.5086,-5.33,12.467,628,0.429,0,1,6,-1,1,1,6,6,1,5,1,3,6,1.9308,-17.866,6.3087,-0.99607,4.3576,-2.5819,3,5,3,1,4,2,0,1,0
1,0,6,-0.99607,-2.5819,-17.866,629,0.446,1,1,6,1,1,1,6,6,1,1,1,2,6,12.467,2.3401,2.5086,3.1263,-5.33,1.761,5,1,1,2,3,3,0,1,1
1,0,6,3.1263,1.761,2.3401,630,0.324,0,1,6,-1,1,1,6,6,1,3,2,3,6,-17.866,-7.6599,-0.99607,-0.62629,-2.5819,-1.5261,1,3,1,1,2,2,0,1,0
1,0,6,-0.62629,-1.5261,-7.6599,631,0.303,1,1,6,1,1,1,6,6,1,1,1,2,6,2.3401,13.232,3.1263,2.6451,1.761,-0.75949,3,1,2,2,3,3,0,1,1
1,0,6,2.6451,-0.75949,13.232,632,0.519,0,1,6,-1,1,1,6,6,1,5,2,3,6,-7.6599,4.6623,-0.62629,7.9953,-1.5261,8.3822,1,5,1,5,2,4,0,1,0
1,0,6,7.9953,8.3822,4.6623,633,0.352,0,1,6,-1,1,1,6,5,1,4,5,4,6,13.232,4.415,2.6451,2.8676,-0.75949,-1.9286,5,4,2,1,3,3,0,1,0
1,0,5,2.8676,-1.9286,4.415,634,0.376,1,1,5,1,1,1,6,6,1,4,1,3,6,4.6623,4.9441,7.9953,7.1861,8.3822,3.9048,4,4,5,3,4,4,0,1,1
1,0,6,7.1861,3.9048,4.9441,635,0.287,0,1,6,-1,1,1,5,6,1,4,3,4,5,4.415,-7.7189,2.8676,11.698,-1.9286,-2.9279,4,4,1,1,3,5,0,1,0
1,0,6,11.698,-2.9279,-7.7189,636,0.311,1,1,6,1,1,1,6,6,1,1,1,5,6,4.9441,2.0878,7.1861,12.114,3.9048,8.7196,4,1,3,5,4,5,0,1,1
1,0,6,12.114,8.7196,2.0878,637,0.372,1,1,6,1,1,1,6,6,1,3,5,5,6,-7.7189,-6.0335,11.698,-3.4035,-2.9279,-6.0664,1,3,1,1,5,1,0,1,1
1,0,6,-3.4035,-6.0664,-6.0335,638,0.405,0,1,6,-1,1,0,6,2,1,2,1,1,6,2.0878,20.975,12.114,5.5685,8.7196,2.0542,3,2,5,3,5,4,0,1,0
1,1,2,5.5685,2.0542,20.975,639,0.328,1,0,2,-1,1,1,6,6,1,5,3,4,6,-6.0335,13.038,-3.4035,14.877,-6.0664,13.114,2,5,1,5,1,5,0,1,1
1,0,6,14.877,13.114,13.038,640,0.332,1,1,6,1,0,1,2,5,1,5,5,5,2,20.975,15.318,5.5685,-1.3154,2.0542,2.1375,5,5,3,3,4,2,0,1,1
1,0,5,-1.3154,2.1375,15.318,641,0.34,0,1,5,-1,1,1,6,6,1,5,3,2,6,13.038,-1.8928,14.877,2.9768,13.114,-3.6632,5,5,5,1,5,3,0,1,0
1,0,6,2.9768,-3.6632,-1.8928,642,0.364,1,1,6,1,1,1,5,6,1,2,1,3,5,15.318,13.046,-1.3154,8.482,2.1375,6.8054,5,2,3,4,2,4,0,1,1
1,0,6,8.482,6.8054,13.046,643,0.397,0,1,6,-1,1,1,6,5,1,5,4,4,6,-1.8928,5.062,2.9768,9.71,-3.6632,8.0654,2,5,1,4,3,5,0,1,0
1,0,5,9.71,8.0654,5.062,644,0.34,1,1,5,1,1,0,6,4,1,4,4,5,6,13.046,1.8781,8.482,5.5404,6.8054,6.7308,5,4,4,4,4,4,0,1,1
1,1,4,5.5404,6.7308,1.8781,645,0.324,1,0,4,-1,1,1,5,6,1,3,4,4,5,5.062,-14.708,9.71,16.272,8.0654,8.7307,4,3,4,5,5,5,0,1,1
1,0,6,16.272,8.7307,-14.708,646,0.466,1,1,6,1,0,1,4,6,1,1,5,5,4,1.8781,7.6299,5.5404,-5.7504,6.7308,-0.038403,3,1,4,2,4,1,0,1,1
1,0,6,-5.7504,-0.038403,7.6299,647,0.385,1,1,6,1,1,1,6,6,1,4,2,1,6,-14.708,16.176,16.272,4.8632,8.7307,8.5534,1,4,5,5,5,3,0,1,1
1,0,6,4.8632,8.5534,16.176,648,0.349,0,1,6,-1,1,0,6,5,1,5,5,3,6,7.6299,-0.91728,-5.7504,5.5027,-0.038403,-0.94869,4,5,2,2,1,4,0,1,0
1,1,5,5.5027,-0.94869,-0.91728,649,0.576,0,0,5,1,1,1,6,6,1,3,2,4,6,16.176,-0.75964,4.8632,14.296,8.5534,9.6869,5,3,5,5,3,5,0,1,0
1,0,6,14.296,9.6869,-0.75964,650,0.348,0,1,6,-1,0,1,5,5,1,3,5,5,5,-0.91728,8.514,5.5027,1.0786,-0.94869,4.1023,3,3,2,3,4,2,0,1,0
1,0,5,1.0786,4.1023,8.514,651,0.381,1,1,5,1,1,1,6,6,1,4,3,2,6,-0.75964,16.248,14.296,11.453,9.6869,15.355,3,4,5,5,5,5,0,1,1
1,0,6,11.453,15.355,16.248,652,0.328,0,1,6,-1,1,1,5,5,1,5,5,5,5,8.514,4.0418,1.0786,1.7758,4.1023,2.7098,4,5,3,3,2,2,0,1,0
1,0,5,1.7758,2.7098,4.0418,653,0.409,0,1,5,-1,1,1,6,5,1,3,3,2,6,16.248,5.9367,11.453,15.751,15.355,13.097,5,3,5,5,5,5,0,1,0
1,0,5,15.751,13.097,5.9367,654,0.386,1,1,5,1,1,0,5,2,1,4,5,5,5,4.0418,12.59,1.7758,9.1311,2.7098,10.244,3,4,3,5,2,5,0,1,1
1,1,2,9.1311,10.244,12.59,655,0.341,1,0,2,-1,1,1,5,6,1,5,5,5,5,5.9367,-1.472,15.751,10.728,13.097,8.4691,4,5,5,5,5,5,0,1,1
1,0,6,10.728,8.4691,-1.472,656,0.348,1,1,6,1,0,1,2,3,1,2,5,5,2,12.59,1.4601,9.1311,3.0048,10.244,0.317,5,2,5,2,5,3,0,1,1
1,0,3,3.0048,0.317,1.4601,657,0.357,1,1,3,1,1,1,6,6,1,3,2,3,6,-1.472,-13.913,10.728,7.5499,8.4691,10.223,2,3,5,5,5,4,0,1,1
1,0,6,7.5499,10.223,-13.913,658,0.34,1,1,6,1,1,1,3,6,1,1,5,4,3,1.4601,-1.9384,3.0048,7.1182,0.317,3.989,3,1,2,3,3,4,0,1,1
1,0,6,7.1182,3.989,-1.9384,659,0.429,0,1,6,-1,1,1,6,4,1,2,3,4,6,-13.913,12.029,7.5499,12.233,10.223,4.1126,1,2,5,3,4,5,0,1,0
1,0,4,12.233,4.1126,12.029,660,0.438,0,1,4,-1,1,1,6,5,1,5,3,5,6,-1.9384,5.4103,7.1182,1.9667,3.989,-0.61098,2,5,3,2,4,3,0,1,0
1,0,5,1.9667,-0.61098,5.4103,661,0.454,1,1,5,1,1,1,4,6,1,4,2,3,4,12.029,-9.5975,12.233,8.4882,4.1126,3.2738,5,4,3,3,5,4,0,1,1
1,0,6,8.4882,3.2738,-9.5975,662,0.417,0,1,6,-1,1,1,5,6,1,1,3,4,5,5.4103,6.0239,1.9667,0.95654,-0.61098,3.7042,4,1,2,3,3,2,0,1,0
1,0,6,0.95654,3.7042,6.0239,663,0.401,0,1,6,-1,1,1,6,6,1,4,3,2,6,-9.5975,-4.6537,8.4882,-0.97117,3.2738,-1.2304,1,4,3,2,4,2,0,1,0
1,0,6,-0.97117,-1.2304,-4.6537,664,0.401,1,1,6,1,1,1,6,6,1,2,2,2,6,6.0239,10.187,0.95654,-1.2238,3.7042,-0.92247,4,2,3,2,2,2,0,1,1
1,0,6,-1.2238,-0.92247,10.187,665,0.442,1,1,6,1,1,1,6,6,1,5,2,2,6,-4.6537,4.1671,-0.97117,7.3897,-1.2304,5.4152,2,5,2,4,2,4,0,1,1
1,0,6,7.3897,5.4152,4.1671,666,0.385,0,1,6,-1,1,1,6,6,1,4,4,4,6,10.187,-4.7501,-1.2238,17.934,-0.92247,8.7676,5,4,2,5,2,5,0,1,0
1,0,6,17.934,8.7676,-4.7501,667,0.303,1,1,6,1,1,0,6,2,1,2,5,5,6,4.1671,11.737,7.3897,-2.0438,5.4152,8.3741,4,2,4,5,4,2,0,1,1
1,1,2,-2.0438,8.3741,11.737,668,0.368,0,0,2,1,1,0,6,2,1,5,5,2,6,-4.7501,3.6167,17.934,-5.9149,8.7676,-1.1773,2,5,5,2,5,1,0,1,0
1,1,2,-5.9149,-1.1773,3.6167,669,0.291,1,0,2,-1,0,0,2,5,1,3,2,1,2,11.737,12.092,-2.0438,-11.242,8.3741,-5.2721,5,3,5,1,2,1,0,1,1
1,1,5,-11.242,-5.2721,12.092,670,0.548,0,0,5,1,0,1,2,6,1,5,1,1,2,3.6167,11.641,-5.9149,15.241,-1.1773,16.704,3,5,2,5,1,5,0,1,0
1,0,6,15.241,16.704,11.641,671,0.332,1,1,6,1,0,0,5,6,1,5,5,5,5,12.092,22.528,-11.242,10.611,-5.2721,14.252,5,5,1,5,1,5,0,1,1
1,1,6,10.611,14.252,22.528,672,0.348,0,0,6,1,1,1,6,6,1,5,5,5,6,11.641,11.78,15.241,10.261,16.704,10.782,5,5,5,5,5,5,0,1,0
1,0,6,10.261,10.782,11.78,673,0.373,0,1,6,-1,0,1,6,6,1,5,5,5,6,22.528,-10.323,10.611,5.3149,14.252,2.6415,5,5,5,3,5,4,0,1,0
1,0,6,5.3149,2.6415,-10.323,674,0.413,1,1,6,1,1,1,6,6,1,1,3,4,6,11.78,4.6076,10.261,0.15019,10.782,-2.0547,5,1,5,1,5,2,0,1,1
1,0,6,0.15019,-2.0547,4.6076,675,0.401,0,1,6,-1,1,1,6,6,1,4,1,2,6,-10.323,-5.6555,5.3149,-5.2612,2.6415,0.326,1,4,3,2,4,1,0,1,0
1,0,6,-5.2612,0.326,-5.6555,676,0.332,1,1,6,1,1,1,6,6,1,2,2,1,6,4.6076,5.9583,0.15019,12.064,-2.0547,17.254,4,2,1,5,2,5,0,1,1
1,0,6,12.064,17.254,5.9583,677,0.327,0,1,6,-1,1,0,6,2,1,4,5,5,6,-5.6555,11.891,-5.2612,8.1074,0.326,6.8937,2,4,2,4,1,4,0,1,0
1,1,2,8.1074,6.8937,11.891,678,0.332,1,0,2,-1,1,1,6,5,1,5,4,4,6,5.9583,4.6703,12.064,-7.5058,17.254,-2.2152,4,5,5,1,5,1,0,1,1
1,0,5,-7.5058,-2.2152,4.6703,679,0.307,0,1,5,-1,0,1,2,6,1,4,1,1,2,11.891,5.6932,8.1074,-0.04289,6.8937,4.9596,5,4,4,4,4,2,0,1,0
1,0,6,-0.04289,4.9596,5.6932,680,0.373,0,1,6,-1,1,1,5,5,1,4,4,2,5,4.6703,-15.755,-7.5058,-6.2986,-2.2152,-3.4193,4,4,1,1,1,1,0,1,0
1,0,5,-6.2986,-3.4193,-15.755,681,0.621,0,1,5,-1,1,1,6,6,1,1,1,1,6,5.6932,-1.2676,-0.04289,-3.7461,4.9596,1.2103,4,1,4,2,2,1,0,1,0
1,0,6,-3.7461,1.2103,-1.2676,682,0.324,1,1,6,1,1,0,5,6,1,3,2,1,5,-15.755,-3.6292,-6.2986,6.4367,-3.4193,6.6786,1,3,1,4,1,4,0,1,1
1,1,6,6.4367,6.6786,-3.6292,683,0.552,0,0,6,1,1,1,6,6,1,2,4,4,6,-1.2676,1.2743,-3.7461,11.162,1.2103,4.5205,3,2,2,3,1,5,0,1,0
1,0,6,11.162,4.5205,1.2743,684,0.507,1,1,6,1,0,1,6,6,1,3,3,5,6,-3.6292,9.8461,6.4367,6.3988,6.6786,4.1532,2,3,4,3,4,4,0,1,1
1,0,6,6.3988,4.1532,9.8461,685,0.41,0,1,6,-1,1,1,6,6,1,4,3,4,6,1.2743,-10.273,11.162,3.0695,4.5205,0.21693,3,4,3,2,5,3,0,1,0
1,0,6,3.0695,0.21693,-10.273,686,0.405,0,1,6,-1,1,1,6,6,1,1,2,3,6,9.8461,-4.7221,6.3988,4.8455,4.1532,1.9586,4,1,3,3,4,3,0,1,0
1,0,6,4.8455,1.9586,-4.7221,687,0.483,1,1,6,1,1,1,6,6,1,2,3,3,6,-10.273,-15.122,3.0695,-1.8774,0.21693,0.14793,1,2,2,2,3,2,0,1,1
1,0,6,-1.8774,0.14793,-15.122,688,0.421,1,1,6,1,1,1,6,6,1,1,2,2,6,-4.7221,-11.179,4.8455,3.8026,1.9586,3.0297,2,1,3,3,3,3,0,1,1
1,0,6,3.8026,3.0297,-11.179,689,0.361,0,1,6,-1,1,1,6,6,1,1,3,3,6,-15.122,10.089,-1.8774,9.518,0.14793,6.7532,1,1,2,4,2,5,0,1,0
1,0,6,9.518,6.7532,10.089,690,0.352,0,1,6,-1,1,0,6,3,1,5,4,5,6,-11.179,21.9,3.8026,4.0623,3.0297,5.7903,1,5,3,4,3,3,0,1,0
1,1,3,4.0623,5.7903,21.9,691,0.295,0,0,3,1,1,1,6,6,1,5,4,3,6,10.089,14.091,9.518,13.808,6.7532,8.5603,5,5,4,5,5,5,0,1,0
1,0,6,13.808,8.5603,14.091,692,0.386,0,1,6,-1,0,1,3,6,1,5,5,5,3,21.9,-2.9107,4.0623,-1.6129,5.7903,-5.2784,5,5,4,1,3,2,0,1,0
1,0,6,-1.6129,-5.2784,-2.9107,693,0.381,1,1,6,1,1,1,6,6,1,2,1,2,6,14.091,19.488,13.808,-3.0253,8.5603,3.3689,5,2,5,3,5,1,0,1,1
1,0,6,-3.0253,3.3689,19.488,694,0.421,1,1,6,1,1,1,6,6,1,5,3,1,6,-2.9107,3.5567,-1.6129,9.4252,-5.2784,4.346,2,5,1,3,2,5,0,1,1
1,0,6,9.4252,4.346,3.5567,695,0.458,0,1,6,-1,1,1,6,6,1,3,3,5,6,19.488,0.12142,-3.0253,0.012548,3.3689,-0.98091,5,3,3,2,1,2,0,1,0
1,0,6,0.012548,-0.98091,0.12142,696,0.391,0,1,6,-1,1,1,6,6,1,3,2,2,6,3.5567,-4.9363,9.4252,0.65607,4.346,-4.3565,3,3,3,1,5,2,0,1,0
1,0,6,0.65607,-4.3565,-4.9363,697,0.278,0,1,6,-1,1,1,6,6,1,2,1,2,6,0.12142,-11.481,0.012548,4.3133,-0.98091,6.8386,3,2,2,4,2,3,0,1,0
1,0,6,4.3133,6.8386,-11.481,698,0.413,1,1,6,1,1,0,6,2,1,1,4,3,6,-4.9363,15.846,0.65607,12.375,-4.3565,9.2591,2,1,1,5,2,5,0,1,1
1,1,2,12.375,9.2591,15.846,699,0.324,0,0,2,1,1,1,6,6,1,5,5,5,6,-11.481,24.674,4.3133,23.851,6.8386,23.048,1,5,4,5,3,5,0,1,0
1,0,6,23.851,23.048,24.674,700,0.352,1,1,6,1,0,1,2,6,1,5,5,5,2,15.846,-11.368,12.375,9.7697,9.2591,4.7659,5,5,5,4,5,5,0,1,1
1,0,6,9.7697,4.7659,-11.368,701,0.328,0,1,6,-1,1,0,6,4,1,1,4,5,6,24.674,-6.0352,23.851,3.9541,23.048,1.4041,5,1,5,2,5,3,0,1,0
1,1,4,3.9541,1.4041,-6.0352,702,0.364,0,0,4,1,1,1,6,6,1,2,2,3,6,-11.368,9.1086,9.7697,4.1973,4.7659,6.6951,1,2,4,4,5,3,0,1,0
1,0,6,4.1973,6.6951,9.1086,703,0.311,1,1,6,1,0,0,4,2,1,4,4,3,4,-6.0352,-9.3981,3.9541,6.256,1.4041,0.51885,2,4,2,2,3,4,0,1,1
1,1,2,6.256,0.51885,-9.3981,704,0.377,0,0,2,1,1,1,6,5,1,1,2,4,6,9.1086,16.156,4.1973,2.2382,6.6951,3.435,4,1,4,3,3,3,0,1,0
1,0,5,2.2382,3.435,16.156,705,0.291,1,1,5,1,0,1,2,6,1,5,3,3,2,-9.3981,-9.4431,6.256,-1.2647,0.51885,-1.909,1,5,2,1,4,2,0,1,1
1,0,6,-1.2647,-1.909,-9.4431,706,0.373,1,1,6,1,1,1,5,6,1,1,1,2,5,16.156,4.084,2.2382,1.9247,3.435,3.6193,5,1,3,3,3,3,0,1,1
1,0,6,1.9247,3.6193,4.084,707,0.438,1,1,6,1,1,1,6,6,1,3,3,3,6,-9.4431,0.93556,-1.2647,-1.192,-1.909,-3.3973,1,3,1,1,2,2,0,1,1
1,0,6,-1.192,-3.3973,0.93556,708,0.413,1,1,6,1,1,1,6,6,1,3,1,2,6,4.084,-3.7747,1.9247,0.35532,3.6193,0.7245,3,3,3,2,3,2,0,1,1
1,0,6,0.35532,0.7245,-3.7747,709,0.438,0,1,6,-1,1,1,6,6,1,2,2,2,6,0.93556,-7.6538,-1.192,8.3533,-3.3973,-0.5533,3,2,1,2,2,4,0,1,0
1,0,6,8.3533,-0.5533,-7.6538,710,0.491,0,1,6,-1,1,1,6,6,1,1,2,4,6,-3.7747,1.7511,0.35532,3.5843,0.7245,7.5997,2,1,2,4,2,3,0,1,0
1,0,6,3.5843,7.5997,1.7511,711,0.409,0,1,6,-1,1,1,6,6,1,3,4,3,6,-7.6538,13.056,8.3533,6.4754,-0.5533,6.2646,1,3,2,4,4,4,0,1,0
1,0,6,6.4754,6.2646,13.056,712,0.352,0,1,6,-1,1,0,6,3,1,5,4,4,6,1.7511,-7.517,3.5843,4.5265,7.5997,2.6306,3,5,4,3,3,3,0,1,0
1,1,3,4.5265,2.6306,-7.517,713,0.381,0,0,3,1,1,0,6,2,1,1,3,3,6,13.056,2.5674,6.4754,-11.183,6.2646,-1.7637,5,1,4,1,4,1,0,1,0
1,1,2,-11.183,-1.7637,2.5674,714,0.287,0,0,2,1,0,1,3,6,1,3,1,1,3,-7.517,9.9126,4.5265,20.054,2.6306,13.374,1,3,3,5,3,5,0,1,0
1,0,6,20.054,13.374,9.9126,715,0.369,0,1,6,-1,0,1,2,6,1,4,5,5,2,2.5674,5.134,-11.183,14.244,-1.7637,13.044,3,4,1,5,1,5,0,1,0
1,0,6,14.244,13.044,5.134,716,0.303,0,1,6,-1,1,1,6,5,1,4,5,5,6,9.9126,-6.9075,20.054,-1.2308,13.374,-3.1732,4,4,5,1,5,2,0,1,0
1,0,5,-1.2308,-3.1732,-6.9075,717,0.316,0,1,5,-1,1,1,6,6,1,2,1,2,6,5.134,13.264,14.244,2.2542,13.044,4.6319,4,2,5,3,5,3,0,1,0
1,0,6,2.2542,4.6319,13.264,718,0.493,1,1,6,1,1,1,5,6,1,5,3,3,5,-6.9075,-10.249,-1.2308,-2.9934,-3.1732,-7.2772,2,5,1,1,2,1,0,1,1
1,0,6,-2.9934,-7.2772,-10.249,719,0.409,1,1,6,1,1,1,6,6,1,1,1,1,6,13.264,-5.8418,2.2542,10.097,4.6319,10.082,5,1,3,5,3,5,0,1,1
1,0,6,10.097,10.082,-5.8418,720,0.347,0,1,6,-1,1,1,6,6,1,2,5,5,6,-10.249,3.8649,-2.9934,15.568,-7.2772,9.1476,1,2,1,5,1,5,0,1,0
1,0,6,15.568,9.1476,3.8649,721,0.36,0,1,6,-1,1,1,6,5,1,3,5,5,6,-5.8418,-3.4363,10.097,-6.8925,10.082,-4.59,2,3,5,1,5,1,0,1,0
1,0,5,-6.8925,-4.59,-3.4363,722,0.45,1,1,5,1,1,1,6,6,1,2,1,1,6,3.8649,17.688,15.568,5.2318,9.1476,14.144,3,2,5,5,5,4,0,1,1
1,0,6,5.2318,14.144,17.688,723,0.336,0,1,6,-1,1,1,5,6,1,5,5,4,5,-3.4363,-21.328,-6.8925,4.8386,-4.59,0.045174,2,5,1,2,1,3,0,1,0
1,0,6,4.8386,0.045174,-21.328,724,0.356,0,1,6,-1,1,1,6,5,1,1,2,3,6,17.688,12.369,5.2318,3.0663,14.144,2.2028,5,1,5,3,4,3,0,1,0
1,0,5,3.0663,2.2028,12.369,725,0.482,1,1,5,1,1,1,6,6,1,5,3,3,6,-21.328,-26.526,4.8386,-2.874,0.045174,-2.7401,1,5,2,1,3,1,0,1,1
1,0,6,-2.874,-2.7401,-26.526,726,0.478,1,1,6,1,1,1,5,6,1,1,1,1,5,12.369,27.902,3.0663,-0.21281,2.2028,12.214,5,1,3,5,3,2,0,1,1
1,0,6,-0.21281,12.214,27.902,727,0.372,1,1,6,1,1,1,6,6,1,5,5,2,6,-26.526,0.99094,-2.874,6.5719,-2.7401,4.1466,1,5,1,3,1,4,0,1,1
1,0,6,6.5719,4.1466,0.99094,728,0.373,0,1,6,-1,1,1,6,6,1,3,3,4,6,27.902,7.1108,-0.21281,7.2289,12.214,3.0568,5,3,5,3,2,4,0,1,0
1,0,6,7.2289,3.0568,7.1108,729,0.467,0,1,6,-1,1,1,6,5,1,4,3,4,6,0.99094,-2.1919,6.5719,9.7066,4.1466,6.4591,3,4,3,4,4,5,0,1,0
1,0,5,9.7066,6.4591,-2.1919,730,0.385,1,1,5,1,1,1,6,6,1,2,4,5,6,7.1108,-19.169,7.2289,3.4275,3.0568,2.4875,4,2,3,3,4,3,0,1,1
1,0,6,3.4275,2.4875,-19.169,731,0.393,0,1,6,-1,1,1,5,6,1,1,3,3,5,-2.1919,2.6373,9.7066,4.3852,6.4591,6.852,2,1,4,4,5,3,0,1,0
1,0,6,4.3852,6.852,2.6373,732,0.531,0,1,6,-1,1,1,6,6,1,3,4,3,6,-19.169,12.048,3.4275,8.7337,2.4875,9.8837,1,3,3,5,3,4,0,1,0
1,0,6,8.7337,9.8837,12.048,733,0.356,0,1,6,-1,1,1,6,6,1,5,5,4,6,2.6373,9.9577,4.3852,10.295,6.852,8.882,3,5,4,5,3,5,0,1,0
1,0,6,10.295,8.882,9.9577,734,0.389,0,1,6,-1,1,1,6,6,1,4,5,5,6,12.048,12.142,8.7337,14.038,9.8837,8.9613,5,4,5,5,4,5,0,1,0
1,0,6,14.038,8.9613,12.142,735,0.295,0,1,6,-1,1,1,6,6,1,5,5,5,6,9.9577,-4.5762,10.295,5.1995,8.882,3.096,4,5,5,3,5,4,0,1,0
1,0,6,5.1995,3.096,-4.5762,736,0.442,1,1,6,1,1,1,6,6,1,2,3,4,6,12.142,-9.3712,14.038,8.1052,8.9613,5.4278,5,2,5,4,5,4,0,1,1
1,0,6,8.1052,5.4278,-9.3712,737,0.356,1,1,6,1,1,1,6,6,1,1,4,4,6,-4.5762,7.5985,5.1995,3.003,3.096,7.8062,2,1,3,4,4,3,0,1,1
1,0,6,3.003,7.8062,7.5985,738,0.328,1,1,6,1,1,1,6,6,1,4,4,3,6,-9.3712,-9.7434,8.1052,1.5022,5.4278,-1.742,1,4,4,1,4,2,0,1,1
1,0,6,1.5022,-1.742,-9.7434,739,0.411,1,1,6,1,1,1,6,6,1,1,1,2,6,7.5985,-0.27714,3.003,2.0586,7.8062,4.6948,4,1,4,4,3,3,0,1,1
1,0,6,2.0586,4.6948,-0.27714,740,0.393,0,1,6,-1,1,1,6,6,1,3,4,3,6,-9.7434,-11.668,1.5022,12.98,-1.742,8.2854,1,3,1,5,2,5,0,1,0
1,0,6,12.98,8.2854,-11.668,741,0.381,1,1,6,1,1,1,6,6,1,1,5,5,6,-0.27714,-3.3666,2.0586,5.7951,4.6948,5.1235,3,1,4,4,3,4,0,1,1
1,0,6,5.7951,5.1235,-3.3666,742,0.352,1,1,6,1,1,1,6,6,1,2,4,4,6,-11.668,-14.143,12.98,13.787,8.2854,11.932,1,2,5,5,5,5,0,1,1
1,0,6,13.787,11.932,-14.143,743,0.45,1,1,6,1,1,1,6,6,1,1,5,5,6,-3.3666,-9.1325,5.7951,-10.121,5.1235,-9.0026,2,1,4,1,4,1,0,1,1
1,0,6,-10.121,-9.0026,-9.1325,744,0.405,0,1,6,-1,1,1,6,6,1,1,1,1,6,-14.143,-4.4833,13.787,15.97,11.932,10.526,1,1,5,5,5,5,0,1,0
1,0,6,15.97,10.526,-4.4833,745,0.324,0,1,6,-1,1,1,6,4,1,2,5,5,6,-9.1325,3.8408,-10.121,7.9741,-9.0026,11.188,1,2,1,5,1,4,0,1,0
1,0,4,7.9741,11.188,3.8408,746,0.576,1,1,4,1,1,1,6,6,1,3,5,4,6,-4.4833,-2.4448,15.97,8.1281,10.526,8.0027,2,3,5,4,5,4,0,1,1
1,0,6,8.1281,8.0027,-2.4448,747,0.332,0,1,6,-1,1,1,4,6,1,2,4,4,4,3.8408,-0.7625,7.9741,9.1663,11.188,2.4346,3,2,5,3,4,5,0,1,0
1,0,6,9.1663,2.4346,-0.7625,748,0.324,0,1,6,-1,1,1,6,5,1,3,3,5,6,-2.4448,-3.7747,8.1281,10.952,8.0027,3.0086,2,3,4,3,4,5,0,1,0
1,0,5,10.952,3.0086,-3.7747,749,0.552,1,1,5,1,1,1,6,5,1,2,3,5,6,-0.7625,0.45085,9.1663,7.3228,2.4346,3.1867,3,2,3,3,5,4,0,1,1
1,0,5,7.3228,3.1867,0.45085,750,0.417,1,1,5,1,1,1,5,6,1,3,3,4,5,-3.7747,-2.4217,10.952,9.3351,3.0086,9.9483,2,3,3,5,5,5,0,1,1
1,0,6,9.3351,9.9483,-2.4217,751,0.368,0,1,6,-1,1,1,5,3,1,2,5,5,5,0.45085,3.1749,7.3228,13.357,3.1867,4.786,3,2,3,4,4,5,0,1,0
1,0,3,13.357,4.786,3.1749,752,0.295,1,1,3,1,1,1,6,5,1,3,4,5,6,-2.4217,29.56,9.3351,15.107,9.9483,12.03,2,3,5,5,5,5,0,1,1
1,0,5,15.107,12.03,29.56,753,0.36,0,1,5,-1,1,1,3,4,1,5,5,5,3,3.1749,-16.688,13.357,17.278,4.786,-2.1463,3,5,4,1,5,5,0,1,0
1,0,4,17.278,-2.1463,-16.688,754,0.427,0,1,4,-1,1,1,5,5,1,1,1,5,5,29.56,21.208,15.107,5.7911,12.03,9.1094,5,1,5,5,5,4,0,1,0
1,0,5,5.7911,9.1094,21.208,755,0.438,0,1,5,-1,1,1,4,5,1,5,5,4,4,-16.688,-6.9909,17.278,7.9939,-2.1463,6.7241,1,5,1,4,5,4,0,1,0
1,0,5,7.9939,6.7241,-6.9909,756,0.344,0,1,5,-1,1,1,5,5,1,2,4,4,5,21.208,5.2007,5.7911,8.527,9.1094,9.5298,5,2,5,5,4,4,0,1,0
1,0,5,8.527,9.5298,5.2007,757,0.377,0,1,5,-1,1,0,5,2,1,4,5,4,5,-6.9909,20.549,7.9939,8.9952,6.7241,5.8287,2,4,4,4,4,5,0,1,0
1,1,2,8.9952,5.8287,20.549,758,0.34,0,0,2,1,1,1,5,5,1,5,4,5,5,5.2007,-12.165,8.527,-1.8212,9.5298,1.008,4,5,5,2,4,2,0,1,0
1,0,5,-1.8212,1.008,-12.165,759,0.287,1,1,5,1,0,1,2,6,1,1,2,2,2,20.549,5.2943,8.9952,3.8542,5.8287,5.0257,5,1,4,4,5,3,0,1,1
1,0,6,3.8542,5.0257,5.2943,760,0.393,0,1,6,-1,1,1,5,6,1,4,4,3,5,-12.165,8.4212,-1.8212,-1.0684,1.008,11.054,1,4,2,5,2,2,0,1,0
1,0,6,-1.0684,11.054,8.4212,761,0.344,0,1,6,-1,1,1,6,6,1,4,5,2,6,5.2943,1.9603,3.8542,12.518,5.0257,11.136,4,4,4,5,3,5,0,1,0
1,0,6,12.518,11.136,1.9603,762,0.336,0,1,6,-1,1,1,6,5,1,3,5,5,6,8.4212,-6.9157,-1.0684,2.9677,11.054,5.793,4,3,5,4,2,3,0,1,0
1,0,5,2.9677,5.793,-6.9157,763,0.34,0,1,5,-1,1,1,6,5,1,2,4,3,6,1.9603,11.317,12.518,7.3242,11.136,4.3413,3,2,5,3,5,4,0,1,0
1,0,5,7.3242,4.3413,11.317,764,0.34,0,1,5,-1,1,0,5,3,1,5,3,4,5,-6.9157,13.536,2.9677,0.33944,5.793,-0.4097,2,5,4,2,3,2,0,1,0
1,1,3,0.33944,-0.4097,13.536,765,0.409,0,0,3,1,1,1,5,5,1,5,2,2,5,11.317,-6.7695,7.3242,15.906,4.3413,14.86,5,5,3,5,4,5,0,1,0
1,0,5,15.906,14.86,-6.7695,766,0.344,1,1,5,1,0,1,3,5,1,2,5,5,3,13.536,10.546,0.33944,4.6764,-0.4097,7.9079,5,2,2,4,2,3,0,1,1
1,0,5,4.6764,7.9079,10.546,767,0.393,0,1,5,-1,1,1,5,5,1,5,4,3,5,-6.7695,6.3756,15.906,11.572,14.86,6.2061,2,5,5,4,5,5,0,1,0
1,0,5,11.572,6.2061,6.3756,768,0.503,1,1,5,1,1,1,5,6,1,4,4,5,5,10.546,11.188,4.6764,4.2636,7.9079,5.0527,5,4,4,4,3,3,0,1,1
1,0,6,4.2636,5.0527,11.188,769,0.397,0,1,6,-1,1,1,5,6,1,5,4,3,5,6.3756,9.4635,11.572,-0.77588,6.2061,-2.9363,4,5,4,1,5,2,0,1,0
1,0,6,-0.77588,-2.9363,9.4635,770,0.43,1,1,6,1,1,1,6,6,1,4,1,2,6,11.188,18.178,4.2636,21.44,5.0527,13.859,5,4,4,5,3,5,0,1,1
1,0,6,21.44,13.859,18.178,771,0.315,0,1,6,-1,1,1,6,5,1,5,5,5,6,9.4635,4.1751,-0.77588,5.4388,-2.9363,-0.80372,4,5,1,2,2,4,0,1,0
1,0,5,5.4388,-0.80372,4.1751,772,0.381,1,1,5,1,1,1,6,6,1,4,2,4,6,18.178,-6.6612,21.44,3.635,13.859,5.5635,5,4,5,4,5,3,0,1,1
1,0,6,3.635,5.5635,-6.6612,773,0.47,1,1,6,1,1,1,5,6,1,2,4,3,5,4.1751,-2.6879,5.4388,8.7412,-0.80372,-0.28972,4,2,2,2,4,4,0,1,1
1,0,6,8.7412,-0.28972,-2.6879,774,0.474,1,1,6,1,1,1,6,6,1,2,2,4,6,-6.6612,0.34316,3.635,-10.546,5.5635,-4.6157,2,2,4,1,3,1,0,1,1
1,0,6,-10.546,-4.6157,0.34316,775,0.446,0,1,6,-1,1,1,6,6,1,3,1,1,6,-2.6879,-10.064,8.7412,-0.93493,-0.28972,2.1744,2,3,2,3,4,2,0,1,0
1,0,6,-0.93493,2.1744,-10.064,776,0.429,0,1,6,-1,1,1,6,6,1,1,3,2,6,0.34316,-3.6929,-10.546,5.3443,-4.6157,-1.1001,3,1,1,2,1,4,0,1,0
1,0,6,5.3443,-1.1001,-3.6929,777,0.385,1,1,6,1,1,1,6,6,1,2,2,4,6,-10.064,-11.381,-0.93493,-1.3514,2.1744,-5.6737,1,2,3,1,2,2,0,1,1
1,0,6,-1.3514,-5.6737,-11.381,778,0.686,1,1,6,1,1,1,6,5,1,1,1,2,6,-3.6929,2.2519,5.3443,9.8979,-1.1001,7.4115,2,1,2,4,4,5,0,1,1
1,0,5,9.8979,7.4115,2.2519,779,0.356,1,1,5,1,1,0,6,1,1,3,4,5,6,-11.381,21.046,-1.3514,9.3494,-5.6737,6.0018,1,3,1,4,2,5,0,1,1
1,1,1,9.3494,6.0018,21.046,780,0.34,0,0,1,1,1,1,5,6,1,5,4,5,5,2.2519,4.2917,9.8979,9.3595,7.4115,4.5033,3,5,4,3,5,5,0,1,0
1,0,6,9.3595,4.5033,4.2917,781,0.393,0,1,6,-1,0,1,1,5,1,4,3,5,1,21.046,-8.0455,9.3494,-0.86117,6.0018,-4.5876,5,4,4,1,5,2,0,1,0
1,0,5,-0.86117,-4.5876,-8.0455,782,0.499,1,1,5,1,1,1,6,6,1,1,1,2,6,4.2917,1.5249,9.3595,19.643,4.5033,15.814,4,1,3,5,5,5,0,1,1
1,0,6,19.643,15.814,1.5249,783,0.368,0,1,6,-1,1,1,5,6,1,3,5,5,5,-8.0455,11.279,-0.86117,18.174,-4.5876,14.718,1,3,1,5,2,5,0,1,0
1,0,6,18.174,14.718,11.279,784,0.356,0,1,6,-1,1,1,6,6,1,5,5,5,6,1.5249,2.3079,19.643,-0.92581,15.814,-2.2888,3,5,5,1,5,2,0,1,0
1,0,6,-0.92581,-2.2888,2.3079,785,0.438,1,1,6,1,1,0,6,4,1,3,1,2,6,11.279,0.8041,18.174,6.0397,14.718,1.8513,5,3,5,3,5,4,0,1,1
1,1,4,6.0397,1.8513,0.8041,786,0.32,0,0,4,1,1,1,6,4,1,3,3,4,6,2.3079,8.6644,-0.92581,2.507,-2.2888,1.1227,3,3,1,2,2,3,0,1,0
1,0,4,2.507,1.1227,8.6644,787,0.299,1,1,4,1,0,1,4,5,1,4,2,3,4,0.8041,-14.629,6.0397,-3.4313,1.8513,-1.2762,3,4,3,1,4,1,0,1,1
1,0,5,-3.4313,-1.2762,-14.629,788,0.409,1,1,5,1,1,1,4,6,1,1,1,1,4,8.6644,-11.324,2.507,10.38,1.1227,6.4337,4,1,2,4,3,5,0,1,1
1,0,6,10.38,6.4337,-11.324,789,0.348,0,1,6,-1,1,0,5,3,1,1,4,5,5,-14.629,9.1458,-3.4313,5.0883,-1.2762,3.4695,1,1,1,3,1,4,0,1,0
